%time,field.time_from_start,field.base.pose.position.x,field.base.pose.position.y,field.base.pose.position.z,field.base.pose.orientation.x,field.base.pose.orientation.y,field.base.pose.orientation.z,field.base.pose.orientation.w,field.base.twist.linear.x,field.base.twist.linear.y,field.base.twist.linear.z,field.base.twist.angular.x,field.base.twist.angular.y,field.base.twist.angular.z,field.base.accel.linear.x,field.base.accel.linear.y,field.base.accel.linear.z,field.base.accel.angular.x,field.base.accel.angular.y,field.base.accel.angular.z,field.ee_motion0.pos.x,field.ee_motion0.pos.y,field.ee_motion0.pos.z,field.ee_motion0.vel.x,field.ee_motion0.vel.y,field.ee_motion0.vel.z,field.ee_motion0.acc.x,field.ee_motion0.acc.y,field.ee_motion0.acc.z,field.ee_motion1.pos.x,field.ee_motion1.pos.y,field.ee_motion1.pos.z,field.ee_motion1.vel.x,field.ee_motion1.vel.y,field.ee_motion1.vel.z,field.ee_motion1.acc.x,field.ee_motion1.acc.y,field.ee_motion1.acc.z,field.ee_motion2.pos.x,field.ee_motion2.pos.y,field.ee_motion2.pos.z,field.ee_motion2.vel.x,field.ee_motion2.vel.y,field.ee_motion2.vel.z,field.ee_motion2.acc.x,field.ee_motion2.acc.y,field.ee_motion2.acc.z,field.ee_motion3.pos.x,field.ee_motion3.pos.y,field.ee_motion3.pos.z,field.ee_motion3.vel.x,field.ee_motion3.vel.y,field.ee_motion3.vel.z,field.ee_motion3.acc.x,field.ee_motion3.acc.y,field.ee_motion3.acc.z,field.ee_forces0.x,field.ee_forces0.y,field.ee_forces0.z,field.ee_forces1.x,field.ee_forces1.y,field.ee_forces1.z,field.ee_forces2.x,field.ee_forces2.y,field.ee_forces2.z,field.ee_forces3.x,field.ee_forces3.y,field.ee_forces3.z,field.ee_contact0,field.ee_contact1,field.ee_contact2,field.ee_contact3
1000,0,-9.52603726242e-16,-9.15199929357e-16,0.47,1.42600685115e-17,-2.59138280747e-17,-1.60247767084e-17,1.0,-1.65045463928e-16,-2.29488167055e-16,-1.74816919269e-16,6.50289401085e-18,-1.69160033599e-17,-5.01178577464e-19,-4.40329438115e-18,7.54691701153e-18,2.81131313145e-17,-4.86982348862e-19,-7.60903703707e-19,2.94601311017e-19,0.33,0.15,-1.16498531934e-16,0.0,0.0,0.0,0.0,0.0,0.0,0.33,-0.15,3.50013878405e-16,0.0,0.0,0.0,0.0,0.0,0.0,-0.33,0.15,2.63313578634e-16,0.0,0.0,0.0,0.0,0.0,0.0,-0.33,-0.15,-6.81664418596e-17,0.0,0.0,0.0,0.0,0.0,0.0,-0.293067787928,-0.0428447398718,75.6837586375,0.271380881399,0.038775175986,53.2246556125,0.284114747379,0.0121140602042,53.2246556125,-0.26242784085,-0.00804449631842,75.6837586375,1,1,1,1
2501000,2500000,1.10786534635e-08,2.69114276619e-09,0.469999808164,7.9615892155e-09,-3.73502796449e-08,-2.33427523291e-08,1.0,1.32821663917e-05,3.23114477916e-06,-0.000229441026025,1.89605762274e-05,-8.92877424923e-05,-5.58337816046e-05,0.0106061828608,0.00258775160116,-0.182334010676,0.0149328787756,-0.0708655085897,-0.0443649064178,0.33,0.15,-1.16498531934e-16,0.0,0.0,0.0,0.0,0.0,0.0,0.33,-0.15,3.50013878405e-16,0.0,0.0,0.0,0.0,0.0,0.0,-0.33,0.15,2.63313578634e-16,0.0,0.0,0.0,0.0,0.0,0.0,-0.33,-0.15,-6.81664418596e-17,0.0,0.0,0.0,0.0,0.0,0.0,-0.289268040085,-0.0400338398608,75.5972449189,0.292984606538,0.0612624009819,51.3526728589,0.312662212279,0.0435785229716,51.3554453416,-0.256531046978,-0.00117132628701,75.5573083266,1,1,1,1
5001000,5000000,8.83848562198e-08,2.156459576e-08,0.46999848055,6.22203082205e-08,-2.95272956669e-07,-1.84853770087e-07,1.0,5.29331630404e-05,1.29529368938e-05,-0.00090557600266,7.34864191556e-05,-0.000351504129079,-0.000220313916781,0.0210950642055,0.00519251786821,-0.357355160488,0.0284521820665,-0.138342921666,-0.086917072676,0.33,0.15,-1.16498531934e-16,0.0,0.0,0.0,0.0,0.0,0.0,0.33,-0.15,3.50013878405e-16,0.0,0.0,0.0,0.0,0.0,0.0,-0.33,0.15,2.63313578634e-16,0.0,0.0,0.0,0.0,0.0,0.0,-0.33,-0.15,-6.81664418596e-17,0.0,0.0,0.0,0.0,0.0,0.0,-0.27695072576,-0.0371724119118,75.4843145615,0.3158260558,0.0849671346575,49.5595976565,0.342392636578,0.0759879216506,49.5660243662,-0.239305741484,0.0103616560431,75.4379088116,1,1,1,1
7501000,7500000,2.97474115721e-07,7.29001472352e-08,0.469994923275,2.05023908843e-07,-9.84634961638e-07,-6.17508549647e-07,0.999999999999,0.000118659736156,2.92079130084e-05,-0.00201012277775,0.000160043286365,-0.000778178981789,-0.000488908458444,0.0314666440341,0.00781429880115,-0.525063449437,0.0405576402887,-0.202432292705,-0.127656413836,0.33,0.15,-1.16498531934e-16,0.0,0.0,0.0,0.0,0.0,0.0,0.33,-0.15,3.50013878405e-16,0.0,0.0,0.0,0.0,0.0,0.0,-0.33,0.15,2.63313578634e-16,0.0,0.0,0.0,0.0,0.0,0.0,-0.33,-0.15,-6.81664418596e-17,0.0,0.0,0.0,0.0,0.0,0.0,-0.256546596302,-0.0343025741302,75.3471009002,0.33985468269,0.109823858135,47.8443936171,0.373253550749,0.109269523705,47.8553356082,-0.211332927216,0.0262453448113,75.3263000461,1,1,1,1
10001000,10000000,7.03168805896e-07,1.73083928023e-07,0.469988088161,4.74201837481e-07,-2.30571560291e-06,-1.44861749512e-06,0.999999999996,0.000210168631948,5.20386097878e-05,-0.00352479919913,0.000275096073962,-0.00136084228852,-0.000857085196866,0.0417209223467,0.0104530944,-0.685458877523,0.0512488386496,-0.263133699336,-0.166582807339,0.33,0.15,-1.16498531934e-16,0.0,0.0,0.0,0.0,0.0,0.0,0.33,-0.15,3.50013878405e-16,0.0,0.0,0.0,0.0,0.0,0.0,-0.33,0.15,2.63313578634e-16,0.0,0.0,0.0,0.0,0.0,0.0,-0.33,-0.15,-6.81664418596e-17,0.0,0.0,0.0,0.0,0.0,0.0,-0.228486403061,-0.0314664446216,75.1877372702,0.365019940709,0.135767052537,46.2060243524,0.405192485266,0.1433505966,46.2223219893,-0.173193607023,0.0461706341569,75.2232219834,1,1,1,1
12501000,12500000,1.3695581662e-06,3.38608410615e-07,0.469976972739,9.03163942665e-07,-4.44820681263e-06,-2.79982553122e-06,0.999999999986,0.000327166596626,8.14875638966e-05,-0.00543132311464,0.000415108489016,-0.00209102425172,-0.00132031158481,0.0518578991431,0.0131089046647,-0.838541444745,0.0605252452906,-0.320447234075,-0.203696108176,0.33,0.15,-1.16498531934e-16,0.0,0.0,0.0,0.0,0.0,0.0,0.33,-0.15,3.50013878405e-16,0.0,0.0,0.0,0.0,0.0,0.0,-0.33,0.15,2.63313578634e-16,0.0,0.0,0.0,0.0,0.0,0.0,-0.33,-0.15,-6.81664418596e-17,0.0,0.0,0.0,0.0,0.0,0.0,-0.193200897388,-0.0287061414916,75.0083570065,0.391271283361,0.162731198985,44.6434534739,0.438156970603,0.178158407798,44.6659264311,-0.125468783756,0.069828418219,75.1294145771,1,1,1,1
15001000,15000000,2.3599983016e-06,5.86072409168e-07,0.469960620241,1.52089881322e-06,-7.59121344459e-06,-4.78711163846e-06,0.999999999959,0.0004693603764,0.000117597312,-0.00771141237213,0.000576542790672,-0.00296025531463,-0.00187405469927,0.0618775744235,0.0157817295953,-0.984311151104,0.0683862380851,-0.374372995634,-0.238996163008,0.33,0.15,-1.16498531934e-16,0.0,0.0,0.0,0.0,0.0,0.0,0.33,-0.15,3.50013878405e-16,0.0,0.0,0.0,0.0,0.0,0.0,-0.33,0.15,2.63313578634e-16,0.0,0.0,0.0,0.0,0.0,0.0,-0.33,-0.15,-6.81664418596e-17,0.0,0.0,0.0,0.0,0.0,0.0,-0.151120830631,-0.0260637828457,74.8110934441,0.418558164149,0.190650778602,43.1556445936,0.472094537234,0.213620224765,43.1850918553,-0.0687394602619,0.0969095911371,75.0456177807,1,1,1,1
17501000,17500000,3.73711218262e-06,9.32181079496e-07,0.469938119608,2.35197182974e-06,-1.19032535985e-05,-7.52078835222e-06,0.999999999898,0.00063645671748,0.000160410390762,-0.0103467848194,0.000755859596578,-0.00396006616647,-0.00251378123721,0.0717799481878,0.0184715691919,-1.1227679966,0.0748311300913,-0.424911080767,-0.272482823241,0.33,0.15,-1.16498531934e-16,0.0,0.0,0.0,0.0,0.0,0.0,0.33,-0.15,3.50013878405e-16,0.0,0.0,0.0,0.0,0.0,0.0,-0.33,0.15,2.63313578634e-16,0.0,0.0,0.0,0.0,0.0,0.0,-0.33,-0.15,-6.81664418596e-17,0.0,0.0,0.0,0.0,0.0,0.0,-0.102676954141,-0.0235814867896,74.5980799182,0.446830036576,0.21946027251,41.7415613229,0.506952715632,0.249663314963,41.7787611837,-0.00358663939098,0.12710504705,74.9725715476,1,1,1,1
20001000,20000000,5.56278964527e-06,1.39374591908e-06,0.469908605483,3.41652300781e-06,-1.75422589472e-05,-1.11055012642e-05,0.999999999779,0.000828162366076,0.000209969336847,-0.0133191583044,0.000949517751259,-0.00508198772792,-0.00323495754268,0.081565020436,0.0211784234543,-1.25391198123,0.0798591936617,-0.47206157669,-0.304155957049,0.33,0.15,-1.16498531934e-16,0.0,0.0,0.0,0.0,0.0,0.0,0.33,-0.15,3.50013878405e-16,0.0,0.0,0.0,0.0,0.0,0.0,-0.33,0.15,2.63313578634e-16,0.0,0.0,0.0,0.0,0.0,0.0,-0.33,-0.15,-6.81664418596e-17,0.0,0.0,0.0,0.0,0.0,0.0,-0.0483000192689,-0.0213013714288,74.3714497639,0.476036354146,0.24909416183,40.4001672738,0.542679036271,0.286214945858,40.445877338,0.0694086760079,0.160105680098,74.9110158313,1,1,1,1
22501000,22500000,7.8981873911e-06,1.98768476706e-06,0.469871258217,4.73026470732e-06,-2.46555750439e-05,-1.56402285615e-05,0.999999999563,0.0010441840684,0.000266316686921,-0.0166102506749,0.0011539742531,-0.00631755111843,-0.00403304966266,0.0912327911682,0.0239022923826,-1.377743105,0.0834696832085,-0.515824554051,-0.334015460357,0.33,0.15,-1.16498531934e-16,0.0,0.0,0.0,0.0,0.0,0.0,0.33,-0.15,3.50013878405e-16,0.0,0.0,0.0,0.0,0.0,0.0,-0.33,0.15,2.63313578634e-16,0.0,0.0,0.0,0.0,0.0,0.0,-0.33,-0.15,-6.81664418596e-17,0.0,0.0,0.0,0.0,0.0,0.0,0.0115792226366,-0.0192655548688,74.1333363161,0.506126570361,0.279486927686,39.1304260578,0.579221029625,0.323202384913,39.1853832398,0.149665483086,0.19560238442,74.8616905852,1,1,1,1
25001000,24999999,1.08037289872e-05,2.73102180423e-06,0.469825303866,6.30447927788e-06,-3.3379961591e-05,-2.12182806346e-05,0.999999999198,0.00128422857065,0.000329494977648,-0.0202017797787,0.00136568423654,-0.00765828760653,-0.00490352342909,0.100783260384,0.0266431759768,-1.4942613679,0.0856618566276,-0.556200060461,-0.362061266767,0.33,0.15,-1.16498531934e-16,0.0,0.0,0.0,0.0,0.0,0.0,0.33,-0.15,3.50013878405e-16,0.0,0.0,0.0,0.0,0.0,0.0,-0.33,0.15,2.63313578634e-16,0.0,0.0,0.0,0.0,0.0,0.0,-0.33,-0.15,-6.81664418596e-17,0.0,0.0,0.0,0.0,0.0,0.0,0.0765300202252,-0.0175161552153,73.88587291,0.537050138724,0.310573051198,37.9313012866,0.616526226167,0.360552899592,37.9962218109,0.236602778993,0.233286054154,74.825335763,1,1,1,1
27501000,27499999,1.43391048662e-05,3.64088755306e-06,0.469770014189,8.14601670625e-06,-4.38415926499e-05,-2.79272997835e-05,0.999999998616,0.00154800261905,0.000399546745693,-0.0240754634637,0.00158110100617,-0.00909572854478,-0.00584184456437,0.110216428084,0.0294010742369,-1.60346676995,0.0864349953798,-0.593188114584,-0.388293356445,0.33,0.15,-1.16498531934e-16,0.0,0.0,0.0,0.0,0.0,0.0,0.33,-0.15,3.50013878405e-16,0.0,0.0,0.0,0.0,0.0,0.0,-0.33,0.15,2.63313578634e-16,0.0,0.0,0.0,0.0,0.0,0.0,-0.33,-0.15,-6.81664418596e-17,0.0,0.0,0.0,0.0,0.0,0.0,0.146121622147,-0.0160952905737,73.6311928806,0.568756512739,0.34228701349,36.801756572,0.654542156372,0.398193757359,36.877335973,0.329639560882,0.272847583442,74.802691318,1,1,1,1
30001000,29999999,1.85632723261e-05,4.73451887768e-06,0.469704706655,1.02572923275e-05,-5.61560567768e-05,-3.58492600469e-05,0.999999997728,0.00183521295981,0.000476514527721,-0.0282130195777,0.00179667611936,-0.0106214052906,-0.0068434788078,0.119532294268,0.0321759871628,-1.70535931112,0.0857884232326,-0.626788700788,-0.412711763954,0.33,0.15,-1.16498531934e-16,0.0,0.0,0.0,0.0,0.0,0.0,0.33,-0.15,3.50013878405e-16,0.0,0.0,0.0,0.0,0.0,0.0,-0.33,0.15,2.63313578634e-16,0.0,0.0,0.0,0.0,0.0,0.0,-0.33,-0.15,-6.81664418596e-17,0.0,0.0,0.0,0.0,0.0,0.0,0.219923277052,-0.0150450790498,73.3714295629,0.601195145909,0.374563295684,35.7407555257,0.693216350712,0.43605222568,35.8276686478,0.428194825902,0.31397786642,74.7944972038,1,1,1,1
32501000,32499999,2.35344555307e-05,6.02925898387e-06,0.469628744433,1.26362846572e-05,-7.04283570681e-05,-4.50604671767e-05,0.999999996425,0.00214556633913,0.000560440860396,-0.0325961659686,0.00200885951404,-0.0122268491144,-0.00790389206026,0.128730858936,0.0349679147547,-1.79993899144,0.0837215236624,-0.657001764355,-0.435316585044,0.33,0.15,-1.16498531934e-16,0.0,0.0,0.0,0.0,0.0,0.0,0.33,-0.15,3.50013878405e-16,0.0,0.0,0.0,0.0,0.0,0.0,-0.33,0.15,2.63313578634e-16,0.0,0.0,0.0,0.0,0.0,0.0,-0.33,-0.15,-6.81664418596e-17,0.0,0.0,0.0,0.0,0.0,0.0,0.29750423359,-0.014407638749,73.1087162922,0.634315491736,0.407336378901,34.7472617594,0.732496339663,0.474055572016,34.8461627569,0.531687571204,0.35636779723,74.8014933738,1,1,1,1
35001000,35000000,2.93101455091e-05,7.54255741909e-06,0.469541536401,1.52765333984e-05,-8.67529111033e-05,-5.56315587753e-05,0.999999994573,0.00247876950323,0.000651368280383,-0.0372066204842,0.00221409967834,-0.0139035910965,-0.00901855054457,0.137812122088,0.0377768570125,-1.88720581089,0.0802337559175,-0.683827207257,-0.456107982391,0.33,0.15,-1.16498531934e-16,0.0,0.0,0.0,0.0,0.0,0.0,0.33,-0.15,3.50013878405e-16,0.0,0.0,0.0,0.0,0.0,0.0,-0.33,0.15,2.63313578634e-16,0.0,0.0,0.0,0.0,0.0,0.0,-0.33,-0.15,-6.81664418596e-17,0.0,0.0,0.0,0.0,0.0,0.0,0.378433740411,-0.014225087777,72.8451864034,0.668067003725,0.440540744265,33.8202388847,0.772329653697,0.512131063834,33.9317612222,0.63953679394,0.39970827001,74.8244197814,1,1,1,1
37501000,37500000,3.5947100156e-05,9.29197007243e-06,0.469442537142,1.8167137672e-05,-0.000105213550773,-6.76275046141e-05,0.999999992013,0.00283452919831,0.000749339324347,-0.0420261009723,0.00240884385871,-0.015643162014,-0.0101829209789,0.146776083723,0.0406028139362,-1.96715976948,0.0753246697435,-0.707264884493,-0.475086190291,0.33,0.15,-1.16498531934e-16,0.0,0.0,0.0,0.0,0.0,0.0,0.33,-0.15,3.50013878405e-16,0.0,0.0,0.0,0.0,0.0,0.0,-0.33,0.15,2.63313578634e-16,0.0,0.0,0.0,0.0,0.0,0.0,-0.33,-0.15,-6.81664418596e-17,0.0,0.0,0.0,0.0,0.0,0.0,0.462281046165,-0.0145395442392,72.5829732316,0.702399135377,0.474110872896,32.9586505133,0.812663823288,0.550205968596,33.0834069652,0.751161491261,0.4436901789,74.8640163803,1,1,1,1
40001000,40000000,4.35013442316e-05,1.12951591747e-05,0.469331246943,2.12927545157e-05,-0.000125883521985,-8.11076071412e-05,0.999999988561,0.00321255217058,0.000854396528952,-0.0470363252808,0.00258953830317,-0.0174370922198,-0.0113924707606,0.155622743843,0.0434457855257,-2.0398008672,0.0689939187719,-0.727314600991,-0.492251518305,0.33,0.15,-1.16498531934e-16,0.0,0.0,0.0,0.0,0.0,0.0,0.33,-0.15,3.50013878405e-16,0.0,0.0,0.0,0.0,0.0,0.0,-0.33,0.15,2.63313578634e-16,0.0,0.0,0.0,0.0,0.0,0.0,-0.33,-0.15,-6.81664418596e-17,0.0,0.0,0.0,0.0,0.0,0.0,0.548615399503,-0.0153931262413,72.3242101119,0.737261340197,0.507981245918,32.1614602571,0.85344637891,0.588207553767,32.3000429078,0.865980660316,0.488004418038,74.9210231238,1,1,1,1
42501000,42500000,5.20281693617e-05,1.35698932983e-05,0.469207211798,2.4633597692e-05,-0.000148825484233,-9.61255021917e-05,0.999999984002,0.00361254516626,0.000966582430863,-0.0522190112576,0.00275262853635,-0.0192769115135,-0.0126426681578,0.164352102446,0.0463057717812,-2.10512910406,0.0612412725711,-0.743976109071,-0.507604353856,0.33,0.15,-1.16498531934e-16,0.0,0.0,0.0,0.0,0.0,0.0,0.33,-0.15,3.50013878405e-16,0.0,0.0,0.0,0.0,0.0,0.0,-0.33,0.15,2.63313578634e-16,0.0,0.0,0.0,0.0,0.0,0.0,-0.33,-0.15,-6.81664418596e-17,0.0,0.0,0.0,0.0,0.0,0.0,0.637006049074,-0.0168279518889,72.0710303793,0.772603071687,0.542086344452,31.4276317276,0.894624851037,0.626063086811,31.5806119715,0.983413298258,0.532341881565,74.9961799654,1,1,1,1
45001000,45000000,6.15821340376e-05,1.61340473573e-05,0.469070023404,2.81654368425e-05,-0.000174091510032,-0.000112729159902,0.999999978095,0.00403421493155,0.00108593956675,-0.0575558767504,0.00289455966306,-0.0211541490078,-0.0139289825063,0.172964159534,0.0491827727025,-2.16314448006,0.0520666273617,-0.757249106484,-0.521145163779,0.33,0.15,-1.16498531934e-16,0.0,0.0,0.0,0.0,0.0,0.0,0.33,-0.15,3.50013878405e-16,0.0,0.0,0.0,0.0,0.0,0.0,-0.33,0.15,2.63313578634e-16,0.0,0.0,0.0,0.0,0.0,0.0,-0.33,-0.15,-6.81664418596e-17,0.0,0.0,0.0,0.0,0.0,0.0,0.727022243528,-0.0188861392874,71.8255673689,0.80837378335,0.576360649621,30.7561285366,0.936146770142,0.663699835192,30.9240570782,1.10287840224,0.576393463619,75.0902268587,1,1,1,1
47501000,47500000,7.2217063616e-05,1.90056026075e-05,0.468919319166,3.18595970201e-05,-0.000201723084212,-0.000130960885836,0.999999970571,0.00447726821266,0.00121251047326,-0.0630286396072,0.00301177669686,-0.0230603329901,-0.0152468844088,0.181458915105,0.0520767882898,-2.21384699519,0.041470015394,-0.767133235005,-0.532874494826,0.33,0.15,-1.16498531934e-16,0.0,0.0,0.0,0.0,0.0,0.0,0.33,-0.15,3.50013878405e-16,0.0,0.0,0.0,0.0,0.0,0.0,-0.33,0.15,2.63313578634e-16,0.0,0.0,0.0,0.0,0.0,0.0,-0.33,-0.15,-6.81664418596e-17,0.0,0.0,0.0,0.0,0.0,0.0,0.818233231516,-0.0216098065426,71.5899544159,0.84452292869,0.610738642547,30.1459142957,0.977959666699,0.701045066374,30.3293211494,1.2237949694,0.61985005834,75.2039037571,1,1,1,1
50001000,50000000,8.39860503192e-05,2.22026466464e-05,0.468754782193,3.56829586271e-05,-0.000231751103058,-0.000150857322312,0.99999996113,0.00494141175581,0.00134633768708,-0.0686190176757,0.00310072491048,-0.0249869907811,-0.0165918459343,0.18983636916,0.0549878185429,-2.25723664946,0.0294516129904,-0.773628079606,-0.542792973118,0.33,0.15,-1.16498531934e-16,0.0,0.0,0.0,0.0,0.0,0.0,0.33,-0.15,3.50013878405e-16,0.0,0.0,0.0,0.0,0.0,0.0,-0.33,0.15,2.63313578634e-16,0.0,0.0,0.0,0.0,0.0,0.0,-0.33,-0.15,-6.81664418596e-17,0.0,0.0,0.0,0.0,0.0,0.0,0.910208261687,-0.0250410717599,71.3663248551,0.88099996121,0.645154804352,29.5959526168,1.02001107118,0.738026047822,29.795347107,1.34558199691,0.662402559866,75.3379506141,1,1,1,1
52501000,52500000,9.69414532352e-05,2.57433734129e-05,0.4685761413,3.95979577848e-05,-0.000264195873316,-0.000172449449946,0.999999949447,0.0054263523072,0.00148746374487,-0.0743087288038,0.00315785020469,-0.026925648593,-0.0179593408149,0.1980965217,0.0579158634619,-2.29331344287,0.0160117472486,-0.776733168187,-0.550901302552,0.33,0.15,-1.16498531934e-16,0.0,0.0,0.0,0.0,0.0,0.0,0.33,-0.15,3.50013878405e-16,0.0,0.0,0.0,0.0,0.0,0.0,-0.33,0.15,2.63313578634e-16,0.0,0.0,0.0,0.0,0.0,0.0,-0.33,-0.15,-6.81664418596e-17,0.0,0.0,0.0,0.0,0.0,0.0,1.00251658269,-0.0292220530449,71.1568120218,0.917754334412,0.679543616157,29.1052071114,1.06224851407,0.774570046998,29.3210778727,1.4676584819,0.703741862339,75.4931073831,1,1,1,1
55001000,55000000,0.000111134898317,2.96460831879e-05,0.468383171007,4.35625871523e-05,-0.000299067111044,-0.000195762589375,0.999999935169,0.00593179661305,0.00163593118328,-0.0800794908393,0.00317959949219,-0.0288678313862,-0.0193448446369,0.206239372723,0.0608609230468,-2.32207737542,0.00115090140789,-0.776447971881,-0.557200262163,0.33,0.15,-1.16498531934e-16,0.0,0.0,0.0,0.0,0.0,0.0,0.33,-0.15,3.50013878405e-16,0.0,0.0,0.0,0.0,0.0,0.0,-0.33,0.15,2.63313578634e-16,0.0,0.0,0.0,0.0,0.0,0.0,-0.33,-0.15,-6.81664418596e-17,0.0,0.0,0.0,0.0,0.0,0.0,1.09472744318,-0.0341948685032,70.963549251,0.9547355018,0.713839559087,28.6726413913,1.10461952582,0.810604331369,28.905456368,1.58944342154,0.743558859895,75.6701140177,1,1,1,1
57501000,57500000,0.000126617278384,3.39291825937e-05,0.468175691539,4.75303972109e-05,-0.000336363940325,-0.000220816403181,0.99999991792,0.00645745141955,0.00179178253899,-0.0859130216301,0.00316242109329,-0.0308050627292,-0.0207438350244,0.21426492223,0.0638229972976,-2.3435284471,-0.0151302811242,-0.772771905925,-0.561690702437,0.33,0.15,-1.16498531934e-16,0.0,0.0,0.0,0.0,0.0,0.0,0.33,-0.15,3.50013878405e-16,0.0,0.0,0.0,0.0,0.0,0.0,-0.33,0.15,2.63313578634e-16,0.0,0.0,0.0,0.0,0.0,0.0,-0.33,-0.15,-6.81664418596e-17,0.0,0.0,0.0,0.0,0.0,0.0,1.1864100918,-0.0400016362404,70.7886698778,0.991892916877,0.747977114261,28.2972190681,1.14707163692,0.846056168396,28.5474255148,1.71035581297,0.781544446676,75.8697104713,1,1,1,1
60001000,60000000,0.000143438753121,3.86111845945e-05,0.467953568827,5.14504980272e-05,-0.000376074891842,-0.000247624897978,0.999999897301,0.00700302347293,0.00195506034866,-0.0917910390241,0.00310276513997,-0.0327288646599,-0.0221517918123,0.222173170221,0.0668020862144,-2.35766665791,-0.0328309940855,-0.765704331101,-0.56437354057,0.33,0.15,-1.16498531934e-16,0.0,0.0,0.0,0.0,0.0,0.0,0.33,-0.15,3.50013878405e-16,0.0,0.0,0.0,0.0,0.0,0.0,-0.33,0.15,2.63313578634e-16,0.0,0.0,0.0,0.0,0.0,0.0,-0.33,-0.15,-6.81664418596e-17,0.0,0.0,0.0,0.0,0.0,0.0,1.27713377721,-0.046684474362,70.6343072372,1.02917603315,0.781890762804,27.9779037537,1.18955237785,0.880852825545,28.2459282348,1.82981465334,0.81738951682,76.0926366974,1,1,1,1
62501000,62500000,0.000161648749077,4.37107084959e-05,0.467716714507,5.52675614984e-05,-0.00041817790132,-0.000276196426658,0.999999872894,0.00756821951939,0.00212580714895,-0.097695260869,0.00299708398499,-0.0346307575523,-0.0235641972058,0.229964116695,0.0697981897969,-2.36449200787,-0.0519502670157,-0.755244555744,-0.565249754692,0.33,0.15,-1.16498531934e-16,0.0,0.0,0.0,0.0,0.0,0.0,0.33,-0.15,3.50013878405e-16,0.0,0.0,0.0,0.0,0.0,0.0,-0.33,0.15,2.63313578634e-16,0.0,0.0,0.0,0.0,0.0,0.0,-0.33,-0.15,-6.81664418596e-17,0.0,0.0,0.0,0.0,0.0,0.0,1.36646774805,-0.0542855009737,70.5025946642,1.06653430411,0.815514985836,27.7136590597,1.23200927907,0.91492157028,27.9999074495,1.9472389398,0.850784964467,76.3396326495,1,1,1,1
65001000,65000000,0.000181295959667,4.92464799453e-05,0.46746508592,5.89218240873e-05,-0.000462640307845,-0.000306533690768,0.999999844265,0.00815274630514,0.00230406547653,-0.103607405013,0.00284183261261,-0.0365022599882,-0.0249765359246,0.237637761654,0.0728113080454,-2.36400449696,-0.0724869652554,-0.741391838319,-0.56432037703,0.33,0.15,-1.16498531934e-16,0.0,0.0,0.0,0.0,0.0,0.0,0.33,-0.15,3.50013878405e-16,0.0,0.0,0.0,0.0,0.0,0.0,-0.33,0.15,2.63313578634e-16,0.0,0.0,0.0,0.0,0.0,0.0,-0.33,-0.15,-6.81664418596e-17,0.0,0.0,0.0,0.0,0.0,0.0,1.45398125297,-0.0628468341809,70.3956654941,1.10391718327,0.84878426448,27.5034485977,1.27438987105,0.948189670065,27.8083060809,2.06204766951,0.881421683755,76.611438281,1,1,1,1
67501000,67500000,0.000202428345174,5.52373309318e-05,0.467198686115,6.23490900418e-05,-0.000509418852068,-0.000338633743007,0.999999810966,0.0087563105764,0.00248987786806,-0.109509189303,0.00263346904776,-0.0383348886365,-0.0263842953288,0.245194105097,0.0758414409598,-2.35620412518,-0.0944397912927,-0.724145390565,-0.561586486034,0.33,0.15,-1.16498531934e-16,0.0,0.0,0.0,0.0,0.0,0.0,0.33,-0.15,3.50013878405e-16,0.0,0.0,0.0,0.0,0.0,0.0,-0.33,0.15,2.63313578634e-16,0.0,0.0,0.0,0.0,0.0,0.0,-0.33,-0.15,-6.81664418596e-17,0.0,0.0,0.0,0.0,0.0,0.0,1.53924354062,-0.0724105920893,70.3156530618,1.14127412414,0.881633079858,27.3462359795,1.31664168428,0.980584392364,27.6700670505,2.17365983961,0.908990568824,76.9087935455,1,1,1,1
70001000,70000000,0.000225093132742,6.17021997861e-05,0.466917563842,6.54807350967e-05,-0.000558459674314,-0.000372487989794,0.999999772544,0.00937861907936,0.00268328686022,-0.115382331588,0.00236845476003,-0.0401201581408,-0.0277829655227,0.252633147023,0.0788885885401,-2.34109089255,-0.117807287457,-0.703504381204,-0.55704919745,0.33,0.15,-1.16498531934e-16,0.0,0.0,0.0,0.0,0.0,0.0,0.33,-0.15,3.50013878405e-16,0.0,0.0,0.0,0.0,0.0,0.0,-0.33,0.15,2.63313578634e-16,0.0,0.0,0.0,0.0,0.0,0.0,-0.33,-0.15,-6.81664418596e-17,0.0,0.0,0.0,0.0,0.0,0.0,1.62182385966,-0.0830188928044,70.2646907024,1.17855458021,0.913995913093,27.2409848168,1.35871224923,1.01203300464,27.58413328,2.28149444726,0.933182513814,77.2324383965,1,1,1,1
72501000,72500000,0.000249336816385,6.86601311807e-05,0.46662181356,6.82437106455e-05,-0.000609698312589,-0.000408082193903,0.99999972854,0.0100193785603,0.00288433498965,-0.121208549715,0.00204325505933,-0.0418495810171,-0.0291680394368,0.259954887434,0.0819527507863,-2.31866479904,-0.142587839965,-0.679467940218,-0.550709654345,0.33,0.15,-1.16498531934e-16,0.0,0.0,0.0,0.0,0.0,0.0,0.33,-0.15,3.50013878405e-16,0.0,0.0,0.0,0.0,0.0,0.0,-0.33,0.15,2.63313578634e-16,0.0,0.0,0.0,0.0,0.0,0.0,-0.33,-0.15,-6.81664418596e-17,0.0,0.0,0.0,0.0,0.0,0.0,1.70129145874,-0.0947138544318,70.244911751,1.21570800498,0.945807245307,27.1866587213,1.40054909636,1.04246277436,27.5494476913,2.38497048961,0.953688412863,77.5831127873,1,1,1,1
75001000,75000000,0.00027520515698,7.61302761294e-05,0.466311575432,7.05605483712e-05,-0.000663059700526,-0.000445396477112,0.999999678497,0.0106782957653,0.00309306479304,-0.126969561532,0.00165433947967,-0.043514667563,-0.0305350128817,0.267159326328,0.0850339276983,-2.28892584468,-0.168779684317,-0.652035163687,-0.542569016087,0.33,0.15,-1.16498531934e-16,0.0,0.0,0.0,0.0,0.0,0.0,0.33,-0.15,3.50013878405e-16,0.0,0.0,0.0,0.0,0.0,0.0,-0.33,0.15,2.63313578634e-16,0.0,0.0,0.0,0.0,0.0,0.0,-0.33,-0.15,-6.81664418596e-17,0.0,0.0,0.0,0.0,0.0,0.0,1.77721558649,-0.107537595077,70.2584495426,1.25268385197,0.977001557621,27.1822213047,1.44209975616,1.07180096898,27.5649532059,2.4835069638,0.970199160112,77.9615566716,1,1,1,1
77501000,77500000,0.00030274318227,8.4131891988e-05,0.465987035326,7.2349365315e-05,-0.000718458165265,-0.000484405322839,0.999999621967,0.0113550774406,0.00330951880703,-0.132647084888,0.00119818214781,-0.0451069257795,-0.0318793845745,0.274246463707,0.0881321192763,-2.25187402945,-0.196380912054,-0.621205119194,-0.532628446276,0.33,0.15,-1.16498531934e-16,0.0,0.0,0.0,0.0,0.0,0.0,0.33,-0.15,3.50013878405e-16,0.0,0.0,0.0,0.0,0.0,0.0,-0.33,0.15,2.63313578634e-16,0.0,0.0,0.0,0.0,0.0,0.0,-0.33,-0.15,-6.81664418596e-17,0.0,0.0,0.0,0.0,0.0,0.0,1.84916549159,-0.121532232846,70.3074374124,1.28943157467,1.00751333116,27.2266361787,1.48331175909,1.09997485598,27.6295927455,2.576522867,0.982405649698,78.3685100027,1,1,1,1
80001000,80000000,0.000331995186864,9.26843424539e-05,0.465648424817,7.35238693637e-05,-0.000775797425304,-0.00052507757872,0.999999558513,0.0120494303325,0.00353373956831,-0.138222837629,0.000671262133314,-0.046617861307,-0.033196656133,0.281216299569,0.0912473255202,-2.20750935336,-0.225389478872,-0.586976851791,-0.520889099629,0.33,0.15,-1.16498531934e-16,0.0,0.0,0.0,0.0,0.0,0.0,0.33,-0.15,3.50013878405e-16,0.0,0.0,0.0,0.0,0.0,0.0,-0.33,0.15,2.63313578634e-16,0.0,0.0,0.0,0.0,0.0,0.0,-0.33,-0.15,-6.81664418596e-17,0.0,0.0,0.0,0.0,0.0,0.0,1.91671042266,-0.136739885843,70.3940086953,1.32590062659,1.03727704704,27.318866955,1.52413263564,1.12691170281,27.742309232,2.66343719634,0.989998775762,78.8047127342,1,1,1,1
82501000,82500000,0.000363004732235,0.000101807097566,0.465296021182,7.39933651269e-05,-0.000834970588324,-0.000567376459095,0.999999487716,0.0127610611872,0.00376576961352,-0.143678537604,7.00637765668e-05,-0.0480389773772,-0.0344823320361,0.288068833915,0.0943795464299,-2.15583181641,-0.255803214095,-0.549349390516,-0.507352107813,0.33,0.15,-1.16498531934e-16,0.0,0.0,0.0,0.0,0.0,0.0,0.33,-0.15,3.50013878405e-16,0.0,0.0,0.0,0.0,0.0,0.0,-0.33,0.15,2.63313578634e-16,0.0,0.0,0.0,0.0,0.0,0.0,-0.33,-0.15,-6.81664418596e-17,0.0,0.0,0.0,0.0,0.0,0.0,1.97941962837,-0.153202672176,70.5202967265,1.36204046123,1.06622718639,27.4578772453,1.56450991627,1.15253877694,27.9020455869,2.74366894898,0.992669432444,79.2709048195,1,1,1,1
85001000,85000000,0.000395814646724,0.000111519733705,0.464930147408,7.36627601745e-05,-0.000895860149021,-0.000611259547341,0.999999409185,0.0134896767509,0.00400565147934,-0.14899590266,-0.000608923008535,-0.0493617747815,-0.0357319195471,0.294804066745,0.0975287820055,-2.09684141859,-0.287619831518,-0.508321755481,-0.492018564237,0.33,0.15,-1.16498531934e-16,0.0,0.0,0.0,0.0,0.0,0.0,0.33,-0.15,3.50013878405e-16,0.0,0.0,0.0,0.0,0.0,0.0,-0.33,0.15,2.63313578634e-16,0.0,0.0,0.0,0.0,0.0,0.0,-0.33,-0.15,-6.81664418596e-17,0.0,0.0,0.0,0.0,0.0,0.0,2.03686235736,-0.170962709948,70.688434841,1.39780053209,1.09429823033,27.6426306613,1.60439113146,1.17678334583,28.1077447321,2.81663712208,0.990108513881,79.7678262122,1,1,1,1
87501000,87500000,0.000430467025536,0.000121841933594,0.464551172183,7.24325715992e-05,-0.000958337986966,-0.000656678798014,0.999999322557,0.0142349837697,0.00425342770244,-0.154156650646,-0.00136920246075,-0.0505777518586,-0.0369409285985,0.301421998059,0.100695032247,-2.03053815991,-0.320836941615,-0.463892965505,-0.474889507791,0.33,0.15,-1.16498531934e-16,0.0,0.0,0.0,0.0,0.0,0.0,0.33,-0.15,3.50013878405e-16,0.0,0.0,0.0,0.0,0.0,0.0,-0.33,0.15,2.63313578634e-16,0.0,0.0,0.0,0.0,0.0,0.0,-0.33,-0.15,-6.81664418596e-17,0.0,0.0,0.0,0.0,0.0,0.0,2.08860785829,-0.190062117266,70.9005563739,1.43313029268,1.12142465998,27.8720908148,1.64372381168,1.19957267694,28.3583495891,2.88176071278,0.982006914213,80.2962168656,1,1,1,1
90001000,90000000,0.00046700323074,0.000132793486296,0.464159509904,7.01989328654e-05,-0.00102226536452,-0.000703580538745,0.99999922751,0.0149966889899,0.00450914081947,-0.159142499409,-0.00221427272987,-0.0516784045009,-0.0381048716337,0.307922627857,0.103878297155,-1.95692204037,-0.35545206512,-0.416062046308,-0.455965905539,0.33,0.15,-1.16498531934e-16,0.0,0.0,0.0,0.0,0.0,0.0,0.33,-0.15,3.50013878405e-16,0.0,0.0,0.0,0.0,0.0,0.0,-0.33,0.15,2.63313578634e-16,0.0,0.0,0.0,0.0,0.0,0.0,-0.33,-0.15,-6.81664418596e-17,0.0,0.0,0.0,0.0,0.0,0.0,2.1342253798,-0.210543012236,71.1587946603,1.46797919649,1.14754095646,28.1452213173,1.6824554874,1.22083403775,28.6528030797,2.93845871823,0.968055527581,80.8568167333,1,1,1,1
92501000,92500000,0.000505463891275,0.000144394287217,0.463755620671,6.68536008993e-05,-0.00108749292484,-0.00075190547183,0.999999123764,0.0157744991577,0.0047728333671,-0.163935166797,-0.00314762567077,-0.0526552261829,-0.0392192634052,0.314305956139,0.107078576728,-1.87599305996,-0.391462647976,-0.364828039248,-0.435248634369,0.33,0.15,-1.16498531934e-16,0.0,0.0,0.0,0.0,0.0,0.0,0.33,-0.15,3.50013878405e-16,0.0,0.0,0.0,0.0,0.0,0.0,-0.33,0.15,2.63313578634e-16,0.0,0.0,0.0,0.0,0.0,0.0,-0.33,-0.15,-6.81664418596e-17,0.0,0.0,0.0,0.0,0.0,0.0,2.17328417054,-0.232447512962,71.4652830352,1.50229669704,1.1725816009,28.4609857806,1.72053368911,1.24049469571,28.9900481257,2.98615013558,0.947945248122,81.4503657688,1,1,1,1
95001000,95000000,0.00054588890294,0.000156664338104,0.463340010289,6.2283963375e-05,-0.00115386068994,-0.000801588675453,0.99999901109,0.0165681210193,0.005044547882,-0.168516370658,-0.00417274667658,-0.0534997080116,-0.0402796207245,0.320571982905,0.110295870967,-1.78775121869,-0.428866077665,-0.310190010614,-0.412738461583,0.33,0.15,-1.16498531934e-16,0.0,0.0,0.0,0.0,0.0,0.0,0.33,-0.15,3.50013878405e-16,0.0,0.0,0.0,0.0,0.0,0.0,-0.33,0.15,2.63313578634e-16,0.0,0.0,0.0,0.0,0.0,0.0,-0.33,-0.15,-6.81664418596e-17,0.0,0.0,0.0,0.0,0.0,0.0,2.20535347917,-0.255817737551,71.8221548338,1.53603224783,1.19648107442,28.8183478164,1.75790594727,1.25848191829,29.3690276487,3.02425396199,0.921366969977,82.0776039255,1,1,1,1
97501000,97500000,0.000588317428405,0.000169623747047,0.462913230272,5.63730461425e-05,-0.00122119805902,-0.000852559604492,0.999998889319,0.017377261321,0.00532432690082,-0.17286782884,-0.00529311455434,-0.054203338801,-0.0412814621637,0.326720708155,0.113530179872,-1.69219651655,-0.467659700913,-0.252147061461,-0.388436024458,0.33,0.15,-1.16498531934e-16,0.0,0.0,0.0,0.0,0.0,0.0,0.33,-0.15,3.50013878405e-16,0.0,0.0,0.0,0.0,0.0,0.0,-0.33,0.15,2.63313578634e-16,0.0,0.0,0.0,0.0,0.0,0.0,-0.33,-0.15,-6.81664418596e-17,0.0,0.0,0.0,0.0,0.0,0.0,2.23000255434,-0.280695804108,72.231543391,1.56913530235,1.21917385814,29.2162710365,1.79451979235,1.27472297296,29.7886845703,3.05218919461,0.888011587284,82.7392711569,1,1,1,1
100001000,100000000,0.0006327878972,0.000183292728475,0.462475877835,4.89995207419e-05,-0.00128932380677,-0.000904742090816,0.999998758342,0.0182016268088,0.00561221296024,-0.17697125919,-0.00651220144669,-0.054757605172,-0.0422203077028,0.332752131888,0.116781503443,-1.58932895355,-0.50784084277,-0.190698337991,-0.362341808741,0.33,0.15,-1.16498531934e-16,0.0,0.0,0.0,0.0,0.0,0.0,0.33,-0.15,3.50013878405e-16,0.0,0.0,0.0,0.0,0.0,0.0,-0.33,0.15,2.63313578634e-16,0.0,0.0,0.0,0.0,0.0,0.0,-0.33,-0.15,-6.81664418596e-17,0.0,0.0,0.0,0.0,0.0,0.0,2.24680064468,-0.307123830738,72.6955820419,1.60155531412,1.24059443318,29.6537190524,1.83032275484,1.28914512717,30.2479618124,3.06937483059,0.847569994184,83.4361074166,1,1,1,1
102501000,102500000,0.000679338005726,0.000197691603162,0.462028595901,4.00377119448e-05,-0.0013580460821,-0.000958054343035,0.999998618119,0.0190409242291,0.00590824859693,-0.180808379557,-0.00783347280299,-0.055153991679,-0.0430916783238,0.338666254106,0.12004984168,-1.47914852969,-0.549406827079,-0.125843042475,-0.33445612611,0.33,0.15,-1.16498531934e-16,0.0,0.0,0.0,0.0,0.0,0.0,0.33,-0.15,3.50013878405e-16,0.0,0.0,0.0,0.0,0.0,0.0,-0.33,0.15,2.63313578634e-16,0.0,0.0,0.0,0.0,0.0,0.0,-0.33,-0.15,-6.81664418596e-17,0.0,0.0,0.0,0.0,0.0,0.0,2.25707651835,-0.332735330935,73.2362454213,1.63324173663,1.26067728067,30.129655476,1.8652623652,1.30167564839,30.7458022967,3.07980322649,0.802096223415,84.2363359569,1,1,1,1
105001000,105000000,0.000728004717245,0.000212840798222,0.461572073097,2.93576052556e-05,-0.00142716240694,-0.0010124089456,0.999998468686,0.0198948603281,0.00621247634753,-0.184360907788,-0.00926038740331,-0.0553839809637,-0.0438910955455,0.344463074807,0.123335194583,-1.36165524497,-0.592354998319,-0.0575804447117,-0.304779090581,0.33,0.15,-1.16498531934e-16,0.0,0.0,0.0,0.0,0.0,0.0,0.33,-0.15,3.50013878405e-16,0.0,0.0,0.0,0.0,0.0,0.0,-0.33,0.15,2.63313578634e-16,0.0,0.0,0.0,0.0,0.0,0.0,-0.33,-0.15,-6.81664418596e-17,0.0,0.0,0.0,0.0,0.0,0.0,2.27382871568,-0.339493845061,74.0020701617,1.66414402339,1.27935688172,30.6430439189,1.8992861539,1.31224180409,31.2811489447,3.09464649693,0.757500509458,85.3044100698,1,1,1,1
107501000,107500000,0.000778824261887,0.000228760847109,0.461107043757,1.68248543056e-05,-0.00149645967541,-0.00106771285722,0.999998310156,0.0207631418519,0.00652493874873,-0.187610561731,-0.0107963974387,-0.0554390539392,-0.0446140808992,0.350142593993,0.126637562152,-1.23684909938,-0.636682744828,0.0140901059736,-0.273310593868,0.33,0.15,-1.16498531934e-16,0.0,0.0,0.0,0.0,0.0,0.0,0.33,-0.15,3.50013878405e-16,0.0,0.0,0.0,0.0,0.0,0.0,-0.33,0.15,2.63313578634e-16,0.0,0.0,0.0,0.0,0.0,0.0,-0.33,-0.15,-6.81664418596e-17,0.0,0.0,0.0,0.0,0.0,0.0,2.29934869951,-0.324549027599,75.0121151471,1.6942116279,1.29656771746,31.1928479928,1.93234165143,1.32077086172,31.8529446783,3.11414473903,0.714185146769,86.634122662,1,1,1,1
110001000,110000000,0.000831832136647,0.000245472389621,0.460634287919,2.3007880662e-06,-0.00156571415328,-0.00112386740841,0.999998142726,0.0216454755468,0.00684567833718,-0.190539059234,-0.0124449486516,-0.0553106900046,-0.0452561553412,0.355704811662,0.129956944386,-1.10473009293,-0.682387523409,0.0891691681975,-0.240050279698,0.33,0.15,-1.16498531934e-16,0.0,0.0,0.0,0.0,0.0,0.0,0.33,-0.15,3.50013878405e-16,0.0,0.0,0.0,0.0,0.0,0.0,-0.33,0.15,2.63313578634e-16,0.0,0.0,0.0,0.0,0.0,0.0,-0.33,-0.15,-6.81664418596e-17,0.0,0.0,0.0,0.0,0.0,0.0,2.33311427275,-0.288947831751,76.2529565373,1.72339400366,1.31224426901,31.7780313094,1.96437638826,1.32719008876,32.4601324192,3.13796706726,0.672260704437,88.210621486,1,1,1,1
112501000,112500000,0.000887063105385,0.000262996171898,0.460154631327,-1.43575821964e-05,-0.00163469147777,-0.00118076829828,0.99999796668,0.022541568159,0.00717473764955,-0.193128118145,-0.0142094805385,-0.0549903672908,-0.0458128385991,0.361149727815,0.133293341287,-0.965298225611,-0.72946688531,0.167657195455,-0.204997517076,0.33,0.15,-1.16498531934e-16,0.0,0.0,0.0,0.0,0.0,0.0,0.33,-0.15,3.50013878405e-16,0.0,0.0,0.0,0.0,0.0,0.0,-0.33,0.15,2.63313578634e-16,0.0,0.0,0.0,0.0,0.0,0.0,-0.33,-0.15,-6.81664418596e-17,0.0,0.0,0.0,0.0,0.0,0.0,2.37460323836,-0.233737210719,77.7111704919,1.75164060419,1.3263210175,32.3975574805,1.99533789485,1.33142675267,33.101655089,3.16578259608,0.631837751551,90.0190542943,1,1,1,1
115001000,115000000,0.000944551198828,0.00028135304642,0.459668945429,-3.32975563072e-05,-0.0017031466578,-0.00123830559027,0.999997782389,0.0234511264346,0.0075121592225,-0.195359456311,-0.0160934266209,-0.0544695629405,-0.0462796484508,0.366477342452,0.136646752853,-0.818553497432,-0.777918503586,0.249554522522,-0.168151372506,0.33,0.15,-1.16498531934e-16,0.0,0.0,0.0,0.0,0.0,0.0,0.33,-0.15,3.50013878405e-16,0.0,0.0,0.0,0.0,0.0,0.0,-0.33,0.15,2.63313578634e-16,0.0,0.0,0.0,0.0,0.0,0.0,-0.33,-0.15,-6.81664418596e-17,0.0,0.0,0.0,0.0,0.0,0.0,2.42329339926,-0.159964117703,79.3733331705,1.77890088297,1.33873244404,33.0503901176,2.02517370169,1.33340812091,33.7764556094,3.19726043996,0.593026857199,92.0445688392,1,1,1,1
117501000,117500000,0.00100432971457,0.000300563972008,0.459178147381,-5.46707389939e-05,-0.00177082407467,-0.00129636370682,0.999997590314,0.02437385712,0.0078579855927,-0.197214791581,-0.0181002147847,-0.0537397534226,-0.0466520999327,0.371687655574,0.140017179085,-0.66449590839,-0.827740201824,0.334861351337,-0.129510581159,0.33,0.15,-1.16498531934e-16,0.0,0.0,0.0,0.0,0.0,0.0,0.33,-0.15,3.50013878405e-16,0.0,0.0,0.0,0.0,0.0,0.0,-0.33,0.15,2.63313578634e-16,0.0,0.0,0.0,0.0,0.0,0.0,-0.33,-0.15,-6.81664418596e-17,0.0,0.0,0.0,0.0,0.0,0.0,2.4786625584,-0.0686755059058,81.2260207327,1.80512429352,1.34941302976,33.7354928326,2.05383133925,1.33306146094,34.4834769022,3.23206971337,0.555938590471,94.2723128732,1,1,1,1
120001000,120000000,0.00106643121706,0.000320650013828,0.458683200042,-7.86330342152e-05,-0.00183745748318,-0.00135482142303,0.999997391009,0.0253094669612,0.00821225929681,-0.198675841803,-0.0202332676943,-0.0527924148824,-0.0469257044735,0.376780667179,0.143404619983,-0.503125458484,-0.87892998424,0.423577736342,-0.0890735169999,0.33,0.15,-1.16498531934e-16,0.0,0.0,0.0,0.0,0.0,0.0,0.33,-0.15,3.50013878405e-16,0.0,0.0,0.0,0.0,0.0,0.0,-0.33,0.15,2.63313578634e-16,0.0,0.0,0.0,0.0,0.0,0.0,-0.33,-0.15,-6.81664418596e-17,0.0,0.0,0.0,0.0,0.0,0.0,2.5401885187,0.0390816714714,83.2558093381,1.83026028933,1.35829725578,34.4518292372,2.08125833799,1.33031404024,35.2216618891,3.26987953076,0.520683520456,96.6874341486,1,1,1,1
122501000,122500000,0.00113088753762,0.000341632343384,0.458185111978,-0.000105344640099,-0.00190277001334,-0.00141355185888,0.999997185116,0.0262576627046,0.00857502287151,-0.199724324823,-0.0224960032829,-0.0516190235293,-0.0470959689536,0.381756377267,0.146809075547,-0.334442147715,-0.931486067134,0.51570356931,-0.0468381618608,0.33,0.15,-1.16498531934e-16,0.0,0.0,0.0,0.0,0.0,0.0,0.33,-0.15,3.50013878405e-16,0.0,0.0,0.0,0.0,0.0,0.0,-0.33,0.15,2.63313578634e-16,0.0,0.0,0.0,0.0,0.0,0.0,-0.33,-0.15,-6.81664418596e-17,0.0,0.0,0.0,0.0,0.0,0.0,2.60734908312,0.162260461227,85.4492751465,1.85425832391,1.36531960322,35.1983629429,2.1074022284,1.32509312626,35.9899534917,3.3103590066,0.487372216242,99.2750804179,1,1,1,1
125001000,125000000,0.00119772977445,0.000363532238525,0.457684937459,-0.000134970044592,-0.00196647417268,-0.00147242247028,0.999996973363,0.0272181510963,0.00894631885344,-0.200341958491,-0.0248918353236,-0.0502110560627,-0.0471583946845,0.38661478584,0.150230545777,-0.158445976083,-0.9854069117,0.611238563632,-0.00280207347253,0.33,0.15,-1.16498531934e-16,0.0,0.0,0.0,0.0,0.0,0.0,0.33,-0.15,3.50013878405e-16,0.0,0.0,0.0,0.0,0.0,0.0,-0.33,0.15,2.63313578634e-16,0.0,0.0,0.0,0.0,0.0,0.0,-0.33,-0.15,-6.81664418596e-17,0.0,0.0,0.0,0.0,0.0,0.0,2.67962205457,0.299813910159,87.7929943174,1.87706785077,1.37041455321,35.9740575616,2.13221054095,1.31732598646,36.7872946318,3.35317725535,0.456115246917,102.020399433,1,1,1,1
127501000,127500000,0.0012669882926,0.000386371083438,0.457183776462,-0.000167678021916,-0.00202827184911,-0.00153129503856,0.999996756561,0.0281906388825,0.00932618977928,-0.200510460653,-0.0274241740842,-0.0485599901385,-0.0471084763074,0.391355892897,0.153669030673,0.0248630564132,-1.04069125818,0.710182238095,0.043037647556,0.33,0.15,-1.16498531934e-16,0.0,0.0,0.0,0.0,0.0,0.0,0.33,-0.15,3.50013878405e-16,0.0,0.0,0.0,0.0,0.0,0.0,-0.33,0.15,2.63313578634e-16,0.0,0.0,0.0,0.0,0.0,0.0,-0.33,-0.15,-6.81664418596e-17,0.0,0.0,0.0,0.0,0.0,0.0,2.75648523601,0.450695065067,90.2735430104,1.8986383234,1.37351658686,36.7778767049,2.15563080611,1.30693988832,37.6126282311,3.39800339149,0.427023181571,104.908538948,1,1,1,1
130001000,130000000,0.00133869272398,0.000410170368655,0.456682774667,-0.000203641629948,-0.00208785431462,-0.00159002565848,0.9999965356,0.0291748328095,0.00971467818569,-0.200211549158,-0.0300964270686,-0.0466573048762,-0.0469417006086,0.395979698438,0.157124530235,0.215484949773,-1.09733816133,0.812533900111,0.0906843918034,0.33,0.15,-1.16498531934e-16,0.0,0.0,0.0,0.0,0.0,0.0,0.33,-0.15,3.50013878405e-16,0.0,0.0,0.0,0.0,0.0,0.0,-0.33,0.15,2.63313578634e-16,0.0,0.0,0.0,0.0,0.0,0.0,-0.33,-0.15,-6.81664418596e-17,0.0,0.0,0.0,0.0,0.0,0.0,2.83741643036,0.613856972749,92.8774973853,1.91891919531,1.3745601853,37.6087839846,2.17761055435,1.2938620993,38.4648972113,3.44450652948,0.400206589293,107.924646713,1,1,1,1
132501000,132500000,0.00141287196739,0.000434951691048,0.456183123462,-0.000243038208628,-0.00214490222956,-0.00164846472452,0.999996311439,0.0301704396235,0.0101118266093,-0.199426941853,-0.032911999849,-0.0444944814092,-0.0466535452473,0.400486202462,0.160597044462,0.413419703996,-1.15534702726,0.918292628439,0.140142076151,0.33,0.15,-1.16498531934e-16,0.0,0.0,0.0,0.0,0.0,0.0,0.33,-0.15,3.50013878405e-16,0.0,0.0,0.0,0.0,0.0,0.0,-0.33,0.15,2.63313578634e-16,0.0,0.0,0.0,0.0,0.0,0.0,-0.33,-0.15,-6.81664418596e-17,0.0,0.0,0.0,0.0,0.0,0.0,2.92189344057,0.788252680002,95.5914336016,1.93785992001,1.37347982965,38.4657430123,2.19809731615,1.27801988685,39.343044494,3.49235578378,0.37577603917,111.053870482,1,1,1,1
135001000,135000000,0.00148955418846,0.00046073675383,0.45568605994,-0.000286049379508,-0.00219908564783,-0.00170645691544,0.999996085094,0.0311771660706,0.0105176775869,-0.198138356587,-0.0358742969916,-0.0420630034779,-0.046239477395,0.404875404971,0.164086573356,0.618667319082,-1.21471765152,1.02745725536,0.191415179943,0.33,0.15,-1.16498531934e-16,0.0,0.0,0.0,0.0,0.0,0.0,0.33,-0.15,3.50013878405e-16,0.0,0.0,0.0,0.0,0.0,0.0,-0.33,0.15,2.63313578634e-16,0.0,0.0,0.0,0.0,0.0,0.0,-0.33,-0.15,-6.81664418596e-17,0.0,0.0,0.0,0.0,0.0,0.0,3.00939406957,0.972835233627,98.4019278189,1.95540995099,1.37021000103,39.3477173997,2.21703862199,1.25934051845,40.2460130011,3.54122026885,0.353842100293,114.281358007,1,1,1,1
137501000,137500000,0.00156876681972,0.000487547366558,0.455192866896,-0.000332861046568,-0.0022500640229,-0.0017638411769,0.999995857631,0.032194718897,0.010932273655,-0.196327511207,-0.0389867230792,-0.0393543580694,-0.0456949522832,0.409147305963,0.167593116915,0.831227795032,-1.27545025849,1.14002634833,0.244508782199,0.33,0.15,-1.16498531934e-16,0.0,0.0,0.0,0.0,0.0,0.0,0.33,-0.15,3.50013878405e-16,0.0,0.0,0.0,0.0,0.0,0.0,-0.33,0.15,2.63313578634e-16,0.0,0.0,0.0,0.0,0.0,0.0,-0.33,-0.15,-6.81664418596e-17,0.0,0.0,0.0,0.0,0.0,0.0,3.09939612029,1.16655768042,101.295556197,1.97151874176,1.36468518057,40.2536707586,2.23438200233,1.23775126156,41.1727456541,3.59076909916,0.334515341749,117.59225704,1,1,1,1
140001000,140000000,0.00165053656055,0.000515405445128,0.454704872835,-0.000383663398414,-0.00229748621475,-0.00182045070213,0.99999563015,0.0332228048491,0.0113556573504,-0.193976123561,-0.0422526838337,-0.036360036103,-0.0450154116566,0.41330190544,0.171116675141,1.05110113184,-1.33754554206,1.25599819109,0.299428599871,0.33,0.15,-1.16498531934e-16,0.0,0.0,0.0,0.0,0.0,0.0,0.33,-0.15,3.50013878405e-16,0.0,0.0,0.0,0.0,0.0,0.0,-0.33,0.15,2.63313578634e-16,0.0,0.0,0.0,0.0,0.0,0.0,-0.33,-0.15,-6.81664418596e-17,0.0,0.0,0.0,0.0,0.0,0.0,3.19137739567,1.36837306718,104.258894895,1.98613574582,1.35683984939,41.1825667006,2.25007498766,1.21317938364,42.1221853749,3.64067138918,0.317906332628,120.971715333,1,1,1,1
142501000,142500000,0.0017348893772,0.000544333011779,0.454223451965,-0.000438650911993,-0.00234099049774,-0.00187611291037,0.999995403764,0.034261130673,0.0117878712096,-0.191065911497,-0.0456755873424,-0.033071533163,-0.0441962821291,0.4173392034,0.174657248032,1.27828732952,-1.40100470757,1.37537076423,0.356181027148,0.33,0.15,-1.16498531934e-16,0.0,0.0,0.0,0.0,0.0,0.0,0.33,-0.15,3.50013878405e-16,0.0,0.0,0.0,0.0,0.0,0.0,-0.33,0.15,2.63313578634e-16,0.0,0.0,0.0,0.0,0.0,0.0,-0.33,-0.15,-6.81664418596e-17,0.0,0.0,0.0,0.0,0.0,0.0,3.28481569866,1.57723444071,107.278520073,1.99921041667,1.3466084886,42.1333688375,2.26406510843,1.18555215215,43.093275085,3.69059625337,0.304125642019,124.40488064,1,1,1,1
145001000,145000000,0.00182185050277,0.000574352195093,0.4537500242,-0.000498022357943,-0.00238020456964,-0.00193064942315,0.999995179585,0.0353094031148,0.0122289577694,-0.187578592863,-0.0492588453898,-0.0294803502824,-0.0432329734408,0.421259199844,0.178214835589,1.51278638806,-1.46582951488,1.49814172524,0.414773175815,0.33,0.15,-1.16498531934e-16,0.0,0.0,0.0,0.0,0.0,0.0,0.33,-0.15,3.50013878405e-16,0.0,0.0,0.0,0.0,0.0,0.0,-0.33,0.15,2.63313578634e-16,0.0,0.0,0.0,0.0,0.0,0.0,-0.33,-0.15,-6.81664418596e-17,0.0,0.0,0.0,0.0,0.0,0.0,3.37918883218,1.7920948478,110.341007891,2.01069220783,1.33392557934,43.1050407809,2.27629989514,1.15479683457,44.0849577063,3.74021280619,0.293283839009,127.876900713,1,1,1,1
147501000,147500000,0.00191144443724,0.000605485229991,0.453286055158,-0.000561980807727,-0.00241474556167,-0.00198387603811,0.999994958696,0.0363673289209,0.0126789595664,-0.183495885506,-0.0530058748994,-0.0255779947753,-0.0421208766122,0.425061894772,0.181789437812,1.75459830746,-1.5320223228,1.62430838794,0.47521291665,0.33,0.15,-1.16498531934e-16,0.0,0.0,0.0,0.0,0.0,0.0,0.33,-0.15,3.50013878405e-16,0.0,0.0,0.0,0.0,0.0,0.0,-0.33,0.15,2.63313578634e-16,0.0,0.0,0.0,0.0,0.0,0.0,-0.33,-0.15,-6.81664418596e-17,0.0,0.0,0.0,0.0,0.0,0.0,3.47397459918,2.01190733525,113.432934508,2.02053057278,1.31872560272,44.0965461425,2.28672687825,1.12084069835,45.0961761604,3.78919016212,0.285491492688,131.372923303,1,1,1,1
150001000,150000000,0.00200369494746,0.000637754457737,0.452833056165,-0.000630733642679,-0.00244422004975,-0.0020356027003,0.999994742129,0.0374346148374,0.0131379191374,-0.178799507275,-0.0569200994877,-0.021355981123,-0.040855361994,0.428747288184,0.185381054701,2.00372308773,-1.59958613451,1.75386770144,0.537508921881,0.33,0.15,-1.16498531934e-16,0.0,0.0,0.0,0.0,0.0,0.0,0.33,-0.15,3.50013878405e-16,0.0,0.0,0.0,0.0,0.0,0.0,-0.33,0.15,2.63313578634e-16,0.0,0.0,0.0,0.0,0.0,0.0,-0.33,-0.15,-6.81664418596e-17,0.0,0.0,0.0,0.0,0.0,0.0,3.56865080258,2.23562494987,116.540876084,2.02867496504,1.30094303987,45.1068485341,2.29529358823,1.08361101096,46.125873369,3.83719743561,0.280859172145,134.878096164,1,1,1,1
152501000,152500000,0.00209862506714,0.000671182325936,0.45239258425,-0.000704492565107,-0.00246822406699,-0.00208563347085,0.999994530832,0.0385109676106,0.0136058790188,-0.173471176017,-0.0610049511331,-0.0168058319122,-0.0394317772095,0.43231538008,0.188989686256,2.26016072886,-1.66852464426,1.88681622844,0.601670708684,0.33,0.15,-1.16498531934e-16,0.0,0.0,0.0,0.0,0.0,0.0,0.33,-0.15,3.50013878405e-16,0.0,0.0,0.0,0.0,0.0,0.0,-0.33,0.15,2.63313578634e-16,0.0,0.0,0.0,0.0,0.0,0.0,-0.33,-0.15,-6.81664418596e-17,0.0,0.0,0.0,0.0,0.0,0.0,3.66269524533,2.46220073844,119.651408779,2.0350748381,1.28051237191,46.1349115674,2.30194755556,1.04303503986,47.1729922539,3.88390374112,0.279497446469,138.377567047,1,1,1,1
155001000,155000000,0.00219625709685,0.000705791388537,0.451966242147,-0.000783473611594,-0.00248634311754,-0.00213376649281,0.999994325638,0.0395960939866,0.0140828817475,-0.16749260958,-0.065263871963,-0.0119190788291,-0.0378454449864,0.43576617046,0.192615332476,2.52391123086,-1.73884228506,2.02315012305,0.66770868373,0.33,0.15,-1.16498531934e-16,0.0,0.0,0.0,0.0,0.0,0.0,0.33,-0.15,3.50013878405e-16,0.0,0.0,0.0,0.0,0.0,0.0,-0.33,0.15,2.63313578634e-16,0.0,0.0,0.0,0.0,0.0,0.0,-0.33,-0.15,-6.81664418596e-17,0.0,0.0,0.0,0.0,0.0,0.0,3.75558573037,2.69058774778,122.751108751,2.03967964548,1.25736807995,47.179698854,2.30663631071,0.999040052524,48.2364757367,3.92897819313,0.281516884747,141.856483706,1,1,1,1
157501000,157500000,0.00229661260403,0.000741604305827,0.451555678299,-0.000867897168652,-0.00249815219183,-0.00217979395406,0.999994127227,0.0406897007116,0.0145689698601,-0.160845525812,-0.0697003161615,-0.00668726370914,-0.0360916608764,0.439099659324,0.196257993363,2.79497459371,-1.81054427751,2.16286510789,0.735634188788,0.33,0.15,-1.16498531934e-16,0.0,0.0,0.0,0.0,0.0,0.0,0.33,-0.15,3.50013878405e-16,0.0,0.0,0.0,0.0,0.0,0.0,-0.33,0.15,2.63313578634e-16,0.0,0.0,0.0,0.0,0.0,0.0,-0.33,-0.15,-6.81664418596e-17,0.0,0.0,0.0,0.0,0.0,0.0,3.84680006062,2.91973902467,125.826552161,2.04243884067,1.23144464513,48.2401740057,2.30930738416,0.951553316405,49.3152667391,3.97208990611,0.28702805607,145.299993892,1,1,1,1
160001000,160000000,0.00239971242299,0.000778643844438,0.451162586851,-0.000957987990875,-0.00250321578321,-0.00222350204715,0.999993936086,0.0417914945319,0.0150641858932,-0.15351164256,-0.0743177520006,-0.00110193964469,-0.0341656908598,0.442315846671,0.199917668915,3.07335081743,-1.88363667963,2.30595645075,0.805459547367,0.33,0.15,-1.16498531934e-16,0.0,0.0,0.0,0.0,0.0,0.0,0.33,-0.15,3.50013878405e-16,0.0,0.0,0.0,0.0,0.0,0.0,-0.33,0.15,2.63313578634e-16,0.0,0.0,0.0,0.0,0.0,0.0,-0.33,-0.15,-6.81664418596e-17,0.0,0.0,0.0,0.0,0.0,0.0,3.93581603903,3.14860761591,128.864315169,2.04330187718,1.20267654856,49.3153006341,2.30990830639,0.900502098972,50.4083081829,4.0129079945,0.296141529525,148.693245358,1,1,1,1
162501000,162500000,0.00250557665489,0.000816932877341,0.450788707655,-0.00105397522175,-0.00250108790628,-0.00226467092586,0.999993752461,0.0429011821937,0.0155685723836,-0.145472677674,-0.0791196639968,0.00484532784763,-0.0320627688308,0.445414732503,0.203594359134,3.35903990202,-1.95812643758,2.45241894047,0.877198112416,0.33,0.15,-1.16498531934e-16,0.0,0.0,0.0,0.0,0.0,0.0,0.33,-0.15,3.50013878405e-16,0.0,0.0,0.0,0.0,0.0,0.0,-0.33,0.15,2.63313578634e-16,0.0,0.0,0.0,0.0,0.0,0.0,-0.33,-0.15,-6.81664418596e-17,0.0,0.0,0.0,0.0,0.0,0.0,4.02211146854,3.37614656831,131.850973934,2.0422182085,1.17099827137,50.404042351,2.30838660785,0.845813667688,51.5145429897,4.05110157278,0.308967874202,152.021385857,1,1,1,1
165001000,165000000,0.00261422466778,0.00085649438385,0.450435826266,-0.00115609241728,-0.00249131211673,-0.00230307465847,0.99999357631,0.0440184704432,0.0160821718678,-0.136710349,-0.0841095551959,0.0111629595991,-0.0297780939643,0.448396316818,0.207288064018,3.65204184747,-2.03402143743,2.60224686231,0.950864315065,0.33,0.15,-1.16498531934e-16,0.0,0.0,0.0,0.0,0.0,0.0,0.33,-0.15,3.50013878405e-16,0.0,0.0,0.0,0.0,0.0,0.0,-0.33,0.15,2.63313578634e-16,0.0,0.0,0.0,0.0,0.0,0.0,-0.33,-0.15,-6.81664418596e-17,0.0,0.0,0.0,0.0,0.0,0.0,4.10516415207,3.60130892866,134.773104615,2.03913728815,1.13634429468,51.505362768,2.30468981903,0.787415290017,52.6329140812,4.08633975542,0.32561765919,155.26956314,1,1,1,1
167501000,167500000,0.00272567509655,0.000897351449622,0.450105773948,-0.00126457757257,-0.002473421533,-0.00233848117736,0.999993407246,0.0451430660265,0.0166050268825,-0.127206374386,-0.0892909495885,0.0178593614983,-0.0273068279577,0.451260599618,0.210998783568,3.95235665378,-2.11133055767,2.75543397263,1.02647371442,0.33,0.15,-1.16498531934e-16,0.0,0.0,0.0,0.0,0.0,0.0,0.33,-0.15,3.50013878405e-16,0.0,0.0,0.0,0.0,0.0,0.0,-0.33,0.15,2.63313578634e-16,0.0,0.0,0.0,0.0,0.0,0.0,-0.33,-0.15,-6.81664418596e-17,0.0,0.0,0.0,0.0,0.0,0.0,4.18445189257,3.82304774376,137.617283372,2.03400856963,1.09864909961,52.6182254969,2.29876547041,0.725234233424,53.7623643793,4.11829165687,0.346201453576,158.422924961,1,1,1,1
170001000,170000000,0.00283994584298,0.000939527266652,0.449800427668,-0.00137967315157,-0.00244693885972,-0.00237065222508,0.999993244477,0.04627467569,0.0171371799645,-0.11694247168,-0.0946673946576,0.0249429231366,-0.0246440921476,0.454007580901,0.214726517784,4.25998432095,-2.19006372261,2.91197347285,1.1040430484,0.33,0.15,-1.16498531934e-16,0.0,0.0,0.0,0.0,0.0,0.0,0.33,-0.15,3.50013878405e-16,0.0,0.0,0.0,0.0,0.0,0.0,-0.33,0.15,2.63313578634e-16,0.0,0.0,0.0,0.0,0.0,0.0,-0.33,-0.15,-6.81664418596e-17,0.0,0.0,0.0,0.0,0.0,0.0,4.25945249298,4.04031606041,140.370086366,2.02678150643,1.05784716728,53.7415941494,2.29056109245,0.659197765372,54.9018368055,4.14662639161,0.370829826451,161.466619071,1,1,1,1
172501000,172500000,0.00295705407569,0.000983045133281,0.449521710098,-0.00150162612014,-0.00241137641309,-0.00239934329644,0.999993086743,0.0474130061798,0.0176786736503,-0.10590035873,-0.10024246406,0.0324220163876,-0.0217849644986,0.456637260669,0.218471266666,4.57492484899,-2.2702319565,3.07185798283,1.18359028564,0.33,0.15,-1.16498531934e-16,0.0,0.0,0.0,0.0,0.0,0.0,0.33,-0.15,3.50013878405e-16,0.0,0.0,0.0,0.0,0.0,0.0,-0.33,0.15,2.63313578634e-16,0.0,0.0,0.0,0.0,0.0,0.0,-0.33,-0.15,-6.81664418596e-17,0.0,0.0,0.0,0.0,0.0,0.0,4.32964375622,4.25206692541,143.018089755,2.01740555207,1.01387297882,54.8744323371,2.28002421562,0.589233153326,56.0502742815,4.17101307409,0.399613346902,164.385793223,1,1,1,1
175001000,175000000,0.00307701623019,0.00102792845419,0.449271589618,-0.0016306879825,-0.0023662361482,-0.00242430357669,0.999992932243,0.0485577642421,0.0182295504767,-0.0940617533844,-0.106019760446,0.040304993919,-0.0187244764603,0.45914963892,0.222233030214,4.89717823789,-2.35184743825,3.23507951342,1.2651346784,0.33,0.15,-1.16498531934e-16,0.0,0.0,0.0,0.0,0.0,0.0,0.33,-0.15,3.50013878405e-16,0.0,0.0,0.0,0.0,0.0,0.0,-0.33,0.15,2.63313578634e-16,0.0,0.0,0.0,0.0,0.0,0.0,-0.33,-0.15,-6.81664418596e-17,0.0,0.0,0.0,0.0,0.0,0.0,4.39450348524,4.45725338556,145.547869699,2.00583016004,0.96666101535,56.0157036718,2.26710237042,0.515267664749,57.2066197292,4.19112081879,0.432662584018,167.16559517,1,1,1,1
177501000,177500000,0.00319984800883,0.0010742007404,0.44905208031,-0.00176711482142,-0.00231100968855,-0.00244527587549,0.999992778557,0.0497086566231,0.0187898529803,-0.0814083734901,-0.112002918414,0.0486001876352,-0.0154576096908,0.461544715655,0.226011808427,5.22674448766,-2.43492355687,3.40162943835,1.34869681658,0.33,0.15,-1.16498531934e-16,0.0,0.0,0.0,0.0,0.0,0.0,0.33,-0.15,3.50013878405e-16,0.0,0.0,0.0,0.0,0.0,0.0,-0.33,0.15,2.63313578634e-16,0.0,0.0,0.0,0.0,0.0,0.0,-0.33,-0.15,-6.81664418596e-17,0.0,0.0,0.0,0.0,0.0,0.0,4.45350948297,4.65482848764,147.946002358,1.99200478385,0.916145757987,57.1643717652,2.25174308729,0.437228567107,58.3698160701,4.20661874016,0.470088106889,169.791172664,1,1,1,1
180001000,180000000,0.00332556438086,0.00112188560927,0.448865241964,-0.00191116734219,-0.00224517835771,-0.00246199655659,0.999992622566,0.0508653900691,0.0193596236977,-0.0679219368954,-0.118195607604,0.0573159070485,-0.0119792926443,0.463822490874,0.229807601307,5.56362359828,-2.51947496731,3.57149846537,1.43429868272,0.33,0.15,-1.16498531934e-16,0.0,0.0,0.0,0.0,0.0,0.0,0.33,-0.15,3.50013878405e-16,0.0,0.0,0.0,0.0,0.0,0.0,-0.33,0.15,2.63313578634e-16,0.0,0.0,0.0,0.0,0.0,0.0,-0.33,-0.15,-6.81664418596e-17,0.0,0.0,0.0,0.0,0.0,0.0,4.50613955235,4.84374527847,150.199063891,1.975878877,0.862261687855,58.319400229,2.23389389673,0.355043127862,59.538806226,4.21717595268,0.512000484603,172.247673456,1,1,1,1
182501000,182500000,0.00345417958236,0.00117100678451,0.448713180074,-0.00206311092058,-0.00216821321338,-0.00247419546297,0.999992460362,0.0520276713262,0.0199389051657,-0.053584161448,-0.124601535936,0.0664604375773,-0.00828439701962,0.465982964577,0.233620408852,5.90781556977,-2.60551764679,3.74467660648,1.5219637081,0.33,0.15,-1.16498531934e-16,0.0,0.0,0.0,0.0,0.0,0.0,0.33,-0.15,3.50013878405e-16,0.0,0.0,0.0,0.0,0.0,0.0,-0.33,0.15,2.63313578634e-16,0.0,0.0,0.0,0.0,0.0,0.0,-0.33,-0.15,-6.81664418596e-17,0.0,0.0,0.0,0.0,0.0,0.0,4.55187149632,5.02295680484,152.293630458,1.957401893,0.804943286078,59.4797526748,2.2135023292,0.268638614479,60.7125331186,4.2224615708,0.558510286249,174.520245301,1,1,1,1
185001000,185000000,0.00358570711629,0.00122158809617,0.448598045841,-0.00222321565492,-0.00207957508379,-0.00248159583739,0.999992287151,0.0531952071407,0.0205277399209,-0.0383767649958,-0.131224452986,0.0760420387686,-0.00436773406698,0.468026136764,0.237450231064,6.25932040213,-2.69306895149,3.92115314753,1.6117168298,0.33,0.15,-1.16498531934e-16,0.0,0.0,0.0,0.0,0.0,0.0,0.33,-0.15,3.50013878405e-16,0.0,0.0,0.0,0.0,0.0,0.0,-0.33,0.15,2.63313578634e-16,0.0,0.0,0.0,0.0,0.0,0.0,-0.33,-0.15,-6.81664418596e-17,0.0,0.0,0.0,0.0,0.0,0.0,4.59018311781,5.19141611356,154.21627822,1.93652328534,0.744125033777,60.6443927144,2.19051591518,0.177942294423,61.8899396695,4.222144709,0.609728080915,176.594035949,1,1,1,1
187501000,187500000,0.00372015975248,0.00127365348063,0.448522036169,-0.0023917564226,-0.00197871460675,-0.0024839142381,0.999992097149,0.0543677042588,0.0211261704999,-0.0222814653866,-0.1380681535,0.0860689424437,-0.000224050751177,0.469952007435,0.241297067941,6.61813809535,-2.78214767338,4.10091661677,1.70358454892,0.33,0.15,-1.16498531934e-16,0.0,0.0,0.0,0.0,0.0,0.0,0.33,-0.15,3.50013878405e-16,0.0,0.0,0.0,0.0,0.0,0.0,-0.33,0.15,2.63313578634e-16,0.0,0.0,0.0,0.0,0.0,0.0,-0.33,-0.15,-6.81664418596e-17,0.0,0.0,0.0,0.0,0.0,0.0,4.62055221976,5.3480762514,155.953583334,1.91319250754,0.679741412075,61.8122839594,2.16488218514,0.0828814351561,63.0699688006,4.21589448173,0.665764437691,178.454193154,1,1,1,1
190001000,190000000,0.00385754952762,0.00132722698064,0.448487393668,-0.00256901294107,-0.00186507227135,-0.00248086044955,0.999991883472,0.0555448694266,0.0217342394395,-0.00527998046835,-0.145136481061,0.0965493507641,0.00415197423224,0.471760576589,0.245160919484,6.98426864943,-2.87277409735,4.28395475265,1.7975949897,0.33,0.15,-1.16498531934e-16,0.0,0.0,0.0,0.0,0.0,0.0,0.33,-0.15,3.50013878405e-16,0.0,0.0,0.0,0.0,0.0,0.0,-0.33,0.15,2.63313578634e-16,0.0,0.0,0.0,0.0,0.0,0.0,-0.33,-0.15,-6.81664418596e-17,0.0,0.0,0.0,0.0,0.0,0.0,4.64245660511,5.49189026519,157.492121961,1.88735901309,0.611726902094,62.9823900217,2.13654866956,-0.016616695856,64.2515634335,4.20338000346,0.726729925665,180.085864668,1,1,1,1
192501000,192500000,0.00399788774528,0.00138233274525,0.448496406656,-0.00275526983348,-0.00173807846242,-0.00247213738796,0.999991638019,0.0567264093905,0.0223519892762,0.0126459719112,-0.152433331889,0.107491434216,0.00876573458996,0.473451844228,0.249041785693,7.35771206438,-2.96497005818,4.47025447065,1.89377795979,0.33,0.15,-1.16498531934e-16,0.0,0.0,0.0,0.0,0.0,0.0,0.33,-0.15,3.50013878405e-16,0.0,0.0,0.0,0.0,0.0,0.0,-0.33,0.15,2.63313578634e-16,0.0,0.0,0.0,0.0,0.0,0.0,-0.33,-0.15,-6.81664418596e-17,0.0,0.0,0.0,0.0,0.0,0.0,4.65537407679,5.62181120171,158.818470261,1.86182777521,0.542399880552,64.146992722,2.1054628989,-0.12062483115,65.4336664899,4.18427038865,0.792735113926,181.474198243,1,1,1,1
195001000,195000000,0.00414118497586,0.00143899502988,0.448551409153,-0.00295081669925,-0.00159715350801,-0.00245744100159,0.999991351345,0.0579120308965,0.0229794625468,0.0315146739043,-0.159962658788,0.118903329509,0.0136227007157,0.47502581035,0.252939666568,7.73846834018,-3.0587589976,4.6598018291,1.99216501148,0.33,0.15,-1.16498531934e-16,0.0,0.0,0.0,0.0,0.0,0.0,0.33,-0.15,3.50013878405e-16,0.0,0.0,0.0,0.0,0.0,0.0,-0.33,0.15,2.63313578634e-16,0.0,0.0,0.0,0.0,0.0,0.0,-0.33,-0.15,-6.81664418596e-17,0.0,0.0,0.0,0.0,0.0,0.0,4.65878243774,5.73679210776,159.919204393,1.84642701123,0.479922081022,65.282660036,2.07157240365,-0.229215703261,66.6152208915,4.15823475178,0.863890571562,182.604341632,1,1,1,1
197501000,197500000,0.00428745105667,0.00149723819629,0.448654780885,-0.00315594818973,-0.00144170772991,-0.00243646016551,0.999991012525,0.059101440691,0.023616701788,0.0513444076629,-0.167728475233,0.130793137393,0.0187284241294,0.476482474957,0.256854562109,8.12653747686,-3.15416602102,4.8525819941,2.09278950395,0.33,0.15,-1.16498531934e-16,0.0,0.0,0.0,0.0,0.0,0.0,0.33,-0.15,3.50013878405e-16,0.0,0.0,0.0,0.0,0.0,0.0,-0.33,0.15,2.63313578634e-16,0.0,0.0,0.0,0.0,0.0,0.0,-0.33,-0.15,-6.81664418596e-17,0.0,0.0,0.0,0.0,0.0,0.0,4.6521594909,5.83578603015,160.780900517,1.84179768555,0.424762132887,66.3882982662,2.03482471427,-0.342462044726,67.7951695601,4.1249422073,0.940306867663,183.461442587,1,1,1,1
200001000,200000000,0.00443669509184,0.00155708671257,0.448808947286,-0.00337096408902,-0.00127114149744,-0.00240887657074,0.999990609013,0.06029434552,0.0242637495363,0.0721534553393,-0.175734859602,0.143168920377,0.0240885420735,0.477821838047,0.260786472316,8.52191947439,-3.25121795393,5.0485792033,2.1956866666,0.33,0.15,-1.16498531934e-16,0.0,0.0,0.0,0.0,0.0,0.0,0.33,-0.15,3.50013878405e-16,0.0,0.0,0.0,0.0,0.0,0.0,-0.33,0.15,2.63313578634e-16,0.0,0.0,0.0,0.0,0.0,0.0,-0.33,-0.15,-6.81664418596e-17,0.0,0.0,0.0,0.0,0.0,0.0,4.63498303919,5.91774601566,161.390134793,1.84772384233,0.376672358552,67.4648520623,1.99516736124,-0.46043658808,68.9724554172,4.08406186969,1.02209457132,184.030648861,1,1,1,1
202501000,202500000,0.00458893056946,0.00161855132693,0.449015532998,-0.00359584556604,-0.00108505590947,-0.0023744433374,0.999990127235,0.0614966549717,0.0249040546008,0.0929444110409,-0.183211219865,0.155530380805,0.029522254533,0.484106002664,0.251456832324,8.11223105931,-2.73251036103,4.84062723339,2.15125365,0.33,0.15,-1.16498531934e-16,0.0,0.0,0.0,0.0,0.0,0.0,0.33,-0.15,3.50013878405e-16,0.0,0.0,0.0,0.0,0.0,0.0,-0.33,0.15,2.63313578634e-16,0.0,0.0,0.0,0.0,0.0,0.0,-0.33,-0.15,-6.81664418596e-17,0.0,0.0,0.0,0.0,0.0,0.0,4.60673088557,5.98162511111,161.733483379,1.86398952573,0.33540508042,68.5132660738,1.95693454761,-0.582388523975,70.1481186423,4.03504381306,1.10730550757,184.252851698,1,1,1,1
205001000,205000000,0.00474419196046,0.00168158754416,0.449272824486,-0.00382929846945,-0.000883887810673,-0.00233322365185,0.999989555587,0.0627152769304,0.0255210299631,0.112721540498,-0.189410602441,0.167372263751,0.0348446266543,0.490871843748,0.242122710629,7.71085847836,-2.22963204017,4.63292378813,2.10660060702,0.33,0.15,-1.16498531934e-16,0.0,0.0,0.0,0.0,0.0,0.0,0.33,-0.15,3.50013878405e-16,0.0,0.0,0.0,0.0,0.0,0.0,-0.33,0.15,2.63313578634e-16,0.0,0.0,0.0,0.0,0.0,0.0,-0.33,-0.15,-6.81664418596e-17,0.0,0.0,0.0,0.0,0.0,0.0,4.56637853132,6.02361927684,161.67513694,1.89037877993,0.300712620895,69.5344849506,1.9493067258,-0.702866117626,71.3354386079,3.97643904245,1.1826284257,183.839536389,1,1,1,1
207501000,207500000,0.00490252155136,0.00174613702599,0.44957831317,-0.00406975058835,-0.000668283293296,-0.00228535911779,0.999988883769,0.0639514155875,0.0261146644192,0.131505633295,-0.194372552664,0.178695238273,0.0400550096123,0.4981193613,0.232784107231,7.31780173153,-1.74256086703,4.42550645616,2.0616503802,0.33,0.15,-1.16498531934e-16,0.0,0.0,0.0,0.0,0.0,0.0,0.33,-0.15,3.50013878405e-16,0.0,0.0,0.0,0.0,0.0,0.0,-0.33,0.15,2.63313578634e-16,0.0,0.0,0.0,0.0,0.0,0.0,-0.33,-0.15,-6.81664418596e-17,0.0,0.0,0.0,0.0,0.0,0.0,4.51335019731,6.03979232817,161.038182602,1.92667564908,0.272347302382,70.5294533421,1.977027286,-0.820945747398,72.536602272,3.90850823001,1.24608665082,182.77000643,1,1,1,1
210001000,210000000,0.00506396463914,0.00181214140616,0.449929542447,-0.00431567910744,-0.00043888774563,-0.0022309918833,0.999988102413,0.065206275134,0.0266849467645,0.149317479017,-0.1981365617,0.189500062879,0.0451525753919,0.505848555319,0.223441022129,6.93306081883,-1.27127563261,4.21840922529,2.01633670697,0.33,0.15,-1.16498531934e-16,0.0,0.0,0.0,0.0,0.0,0.0,0.33,-0.15,3.50013878405e-16,0.0,0.0,0.0,0.0,0.0,0.0,-0.33,0.15,2.63313578634e-16,0.0,0.0,0.0,0.0,0.0,0.0,-0.33,-0.15,-6.81664418596e-17,0.0,0.0,0.0,0.0,0.0,0.0,4.44833344748,6.03135878494,159.850124952,1.97266417734,0.250061447285,71.4991158981,2.03932039298,-0.936735279934,73.751204196,3.83181653287,1.29819986223,181.079094144,1,1,1,1
212501000,212500000,0.00522856953126,0.00187954229039,0.450324107684,-0.00456561054595,-0.00019634575538,-0.00217026484443,0.999987203218,0.0664810597611,0.0272318657951,0.16617786725,-0.20074206883,0.199787576659,0.0501363435165,0.514059425807,0.214093455323,6.55663574026,-0.815756031599,4.01166259346,1.970603813,0.33,0.15,-1.16498531934e-16,0.0,0.0,0.0,0.0,0.0,0.0,0.33,-0.15,3.50013878405e-16,0.0,0.0,0.0,0.0,0.0,0.0,-0.33,0.15,2.63313578634e-16,0.0,0.0,0.0,0.0,0.0,0.0,-0.33,-0.15,-6.81664418596e-17,0.0,0.0,0.0,0.0,0.0,0.0,4.3720273223,5.99958624859,158.140690254,2.02812840888,0.233607378008,72.4444172681,2.13541021149,-1.05034258188,74.9788389416,3.74692910817,1.33948773919,178.801631853,1,1,1,1
215001000,215000000,0.00539638754567,0.00194828125637,0.450759656226,-0.00481812069923,5.86989779286e-05,-0.00210332181911,0.999986179057,0.06777697366,0.0277554103064,0.18210758758,-0.20222846368,0.209558690702,0.0550052067608,0.522751972761,0.204741406815,6.18852649581,-0.37598264625,3.80529367861,1.92440600617,0.33,0.15,-1.16498531934e-16,0.0,0.0,0.0,0.0,0.0,0.0,0.33,-0.15,3.50013878405e-16,0.0,0.0,0.0,0.0,0.0,0.0,-0.33,0.15,2.63313578634e-16,0.0,0.0,0.0,0.0,0.0,0.0,-0.33,-0.15,-6.81664418596e-17,0.0,0.0,0.0,0.0,0.0,0.0,4.28513086223,5.94574232058,155.939604769,2.09285238786,0.222737416955,73.3663021018,2.2645209063,-1.16187551986,76.2191010703,3.65441111304,1.370469961,175.972451881,1,1,1,1
217501000,217500000,0.00556747301078,0.00201829985382,0.45123388739,-0.0050718345827,0.000325603721751,-0.00203030769262,0.999985024051,0.069095221022,0.0282555690944,0.197127429591,-0.202635088426,0.218814379777,0.0597579558494,0.531926196184,0.195384876602,5.82873308549,0.048063073426,3.59932632733,1.87770727092,0.33,0.15,-1.16498531934e-16,0.0,0.0,0.0,0.0,0.0,0.0,0.33,-0.15,3.50013878405e-16,0.0,0.0,0.0,0.0,0.0,0.0,-0.33,0.15,2.63313578634e-16,0.0,0.0,0.0,0.0,0.0,0.0,-0.33,-0.15,-6.81664418596e-17,0.0,0.0,0.0,0.0,0.0,0.0,4.18834310771,5.87109460235,153.276594761,2.16662015845,0.21720388653,74.2657150489,2.42587664216,-1.27144196054,77.4715851437,3.55482770459,1.39166620695,172.626386549,1,1,1,1
220001000,220000000,0.00574188326549,0.0020895396044,0.451744552467,-0.00532542637839,0.000603726780777,-0.00195136853565,0.999983733622,0.070437006038,0.0287323309547,0.211258182869,-0.202001239924,0.227555674295,0.0643933031421,0.541582096074,0.186023864687,5.4772555093,0.456398832751,3.39378122253,1.83048086328,0.33,0.15,-1.16498531934e-16,0.0,0.0,0.0,0.0,0.0,0.0,0.33,-0.15,3.50013878405e-16,0.0,0.0,0.0,0.0,0.0,0.0,-0.33,0.15,2.63313578634e-16,0.0,0.0,0.0,0.0,0.0,0.0,-0.33,-0.15,-6.81664418596e-17,0.0,0.0,0.0,0.0,0.0,0.0,4.0823630992,5.77691069536,150.181386493,2.24921576482,0.216759109138,75.143600759,2.61870158384,-1.37914977056,78.7358857234,3.44874403997,1.4035961563,168.79826818,1,1,1,1
222501000,222500000,0.00591967865918,0.00216194200181,0.452289454722,-0.00557761938371,0.000892427558882,-0.00186665169613,0.999982304517,0.0718035328994,0.0291856846831,0.224520637,-0.200366171801,0.235783652531,0.0689099053062,0.551719672432,0.176658371068,5.13409376723,0.849041518165,3.18867598993,1.78270890618,0.33,0.15,-1.16498531934e-16,0.0,0.0,0.0,0.0,0.0,0.0,0.33,-0.15,3.50013878405e-16,0.0,0.0,0.0,0.0,0.0,0.0,-0.33,0.15,2.63313578634e-16,0.0,0.0,0.0,0.0,0.0,0.0,-0.33,-0.15,-6.81664418596e-17,0.0,0.0,0.0,0.0,0.0,0.0,3.96788987718,5.66445820105,146.683706227,2.34042325111,0.221155407183,76.0009038817,2.8422198961,-1.48510681654,80.0115973709,3.3367252763,1.40677948835,164.522929097,1,1,1,1
225001000,225000000,0.00610092255168,0.00223544851171,0.452866449394,-0.00582718596257,0.00119106661299,-0.00177630586592,0.999980734815,0.0731960057972,0.0296156190753,0.236935581567,-0.197769096461,0.243499433113,0.0733063849794,0.562338925257,0.167288395745,4.79924785929,1.22600722523,2.9840253036,1.73438198546,0.33,0.15,-1.16498531934e-16,0.0,0.0,0.0,0.0,0.0,0.0,0.33,-0.15,3.50013878405e-16,0.0,0.0,0.0,0.0,0.0,0.0,-0.33,0.15,2.63313578634e-16,0.0,0.0,0.0,0.0,0.0,0.0,-0.33,-0.15,-6.81664418596e-17,0.0,0.0,0.0,0.0,0.0,0.0,3.84562248208,5.53500472087,142.813280227,2.4400266615,0.230145103069,76.8385690666,3.09565574371,-1.58942096515,81.2983146479,3.2193365707,1.40173588239,159.835201622,1,1,1,1
227501000,227500000,0.00628568131335,0.00231000057174,0.453473443696,-0.00607294749873,0.00149900569908,-0.00168048112358,0.999979023917,0.0746156289227,0.030022122927,0.248523806158,-0.194249187025,0.25070416777,0.077581351422,0.573439854551,0.157913938719,4.47271778548,1.58731128839,2.77984099037,1.68549874618,0.33,0.15,-1.16498531934e-16,0.0,0.0,0.0,0.0,0.0,0.0,0.33,-0.15,3.50013878405e-16,0.0,0.0,0.0,0.0,0.0,0.0,-0.33,0.15,2.63313578634e-16,0.0,0.0,0.0,0.0,0.0,0.0,-0.33,-0.15,-6.81664418596e-17,0.0,0.0,0.0,0.0,0.0,0.0,3.71625995438,5.38981785628,138.599834754,2.54781004016,0.243480519199,77.6575409635,3.37823329141,-1.69220008301,82.5956321159,3.09714308032,1.38898501768,154.769918077,1,1,1,1
230001000,230000000,0.00647402432498,0.00238553959155,0.454108396816,-0.00631377435118,0.00181560781058,-0.00157932895421,0.99997717251,0.0760636064671,0.0304051850341,0.259306100356,-0.189845579199,0.257399034351,0.081733420161,0.585022460312,0.14853499999,4.15450354579,1.93296831196,2.5761321333,1.63606548945,0.33,0.15,-1.16498531934e-16,0.0,0.0,0.0,0.0,0.0,0.0,0.33,-0.15,3.50013878405e-16,0.0,0.0,0.0,0.0,0.0,0.0,-0.33,0.15,2.63313578634e-16,0.0,0.0,0.0,0.0,0.0,0.0,-0.33,-0.15,-6.81664418596e-17,0.0,0.0,0.0,0.0,0.0,0.0,3.58050133453,5.23016520872,134.073096072,2.66355743123,0.26091397798,78.4587642219,3.68917670398,-1.79355203677,83.9031443365,2.97070996227,1.36904657353,149.361910786,1,1,1,1
232501000,232500000,0.00666602397786,0.00246200695279,0.454769319914,-0.00654858581171,0.00214023720935,-0.00147300224767,0.999975182529,0.0775411426214,0.0307647941922,0.269303253748,-0.184597373058,0.263585230089,0.0857612316266,0.59708674254,0.139151579557,3.84460514023,2.26299220209,2.37290517412,1.5860957698,0.33,0.15,-1.16498531934e-16,0.0,0.0,0.0,0.0,0.0,0.0,0.33,-0.15,3.50013878405e-16,0.0,0.0,0.0,0.0,0.0,0.0,-0.33,0.15,2.63313578634e-16,0.0,0.0,0.0,0.0,0.0,0.0,-0.33,-0.15,-6.81664418596e-17,0.0,0.0,0.0,0.0,0.0,0.0,3.43904566298,5.05731437964,129.262790444,2.7870528789,0.282197801813,79.2431834915,4.02771014618,-1.89358469308,85.2204458713,2.8406023737,1.34244022921,143.646012071,1,1,1,1
235001000,235000000,0.00686175567376,0.00253934400905,0.455454276125,-0.0067763500644,0.0024722594495,-0.00136165527615,0.999973057091,0.0790494415768,0.0311009391971,0.278536055919,-0.178543634749,0.269263965123,0.089663468783,0.609632701236,0.129763677421,3.54302256879,2.57739619907,2.17016401467,1.53560999282,0.33,0.15,-1.16498531934e-16,0.0,0.0,0.0,0.0,0.0,0.0,0.33,-0.15,3.50013878405e-16,0.0,0.0,0.0,0.0,0.0,0.0,-0.33,0.15,2.63313578634e-16,0.0,0.0,0.0,0.0,0.0,0.0,-0.33,-0.15,-6.81664418596e-17,0.0,0.0,0.0,0.0,0.0,0.0,3.2925919802,4.87253297049,124.198644132,2.91808042732,0.307084313105,80.011743422,4.39305778276,-1.99240591857,86.5471312818,2.70738547171,1.309685664,137.657054254,1,1,1,1
237501000,237500000,0.00706129782491,0.00261749208597,0.456161380559,-0.00699608414697,0.00281104139427,-0.00124544365233,0.999970800435,0.0805897075246,0.0314136088446,0.287025296454,-0.171723398118,0.274436456279,0.093438873754,0.6226603364,0.120371293581,3.24975583148,2.87619290981,1.96791011747,1.48463501345,0.33,0.15,-1.16498531934e-16,0.0,0.0,0.0,0.0,0.0,0.0,0.33,-0.15,3.50013878405e-16,0.0,0.0,0.0,0.0,0.0,0.0,-0.33,0.15,2.63313578634e-16,0.0,0.0,0.0,0.0,0.0,0.0,-0.33,-0.15,-6.81664418596e-17,0.0,0.0,0.0,0.0,0.0,0.0,3.14183932664,4.67708858273,118.910383399,3.05642412065,0.335325834258,80.7653886629,4.78444377849,-2.09012357989,87.8827951296,2.57162441345,1.2713025572,131.429869657,1,1,1,1
240001000,240000000,0.00726473185403,0.00269639248114,0.456888800298,-0.00720685391412,0.00315595122618,-0.00112452426915,0.999968417838,0.0821631446559,0.0317027919303,0.294791764938,-0.164175666251,0.279103921093,0.0970862634439,0.636169648032,0.110974428038,2.9648049283,3.15939433997,1.7661426052,1.43320373458,0.33,0.15,-1.16498531934e-16,0.0,0.0,0.0,0.0,0.0,0.0,0.33,-0.15,3.50013878405e-16,0.0,0.0,0.0,0.0,0.0,0.0,-0.33,0.15,2.63313578634e-16,0.0,0.0,0.0,0.0,0.0,0.0,-0.33,-0.15,-6.81664418596e-17,0.0,0.0,0.0,0.0,0.0,0.0,2.98748674276,4.47224881779,113.427734509,3.20186800307,0.366674687678,81.5050638639,5.20109229813,-2.18684554368,89.2270319764,2.43388435605,1.22781058807,124.999290604,1,1,1,1
242501000,242500000,0.00747214219433,0.00277598646415,0.457634754398,-0.00740777400251,0.00350635845077,-0.000999055222499,0.999965915531,0.0837709571618,0.03196847725,0.301856250957,-0.15593941294,0.283267572086,0.100604544156,0.650160636131,0.101573080791,2.68816985925,3.42701192557,1.56485835938,1.38135470611,0.33,0.15,-1.16498531934e-16,0.0,0.0,0.0,0.0,0.0,0.0,0.33,-0.15,3.50013878405e-16,0.0,0.0,0.0,0.0,0.0,0.0,-0.33,0.15,2.63313578634e-16,0.0,0.0,0.0,0.0,0.0,0.0,-0.33,-0.15,-6.81664418596e-17,0.0,0.0,0.0,0.0,0.0,0.0,2.83023326902,4.25928127714,107.780423723,3.35419611872,0.400883195767,82.2317136746,5.64222750644,-2.28267967658,90.5794363836,2.29473045663,1.17972943592,118.400149416,1,1,1,1
245001000,245000000,0.00768361628948,0.00285621527658,0.458397513892,-0.00759800779762,0.00386163389407,-0.000869195717674,0.999963300607,0.0854143492336,0.0322106535995,0.308239544096,-0.147053584065,0.286928611284,0.103992725212,0.664633300698,0.0921672518409,2.41985062432,3.67905656364,1.36405211804,1.32913172451,0.33,0.15,-1.16498531934e-16,0.0,0.0,0.0,0.0,0.0,0.0,0.33,-0.15,3.50013878405e-16,0.0,0.0,0.0,0.0,0.0,0.0,-0.33,0.15,2.63313578634e-16,0.0,0.0,0.0,0.0,0.0,0.0,-0.33,-0.15,-6.81664418596e-17,0.0,0.0,0.0,0.0,0.0,0.0,2.67077794587,4.03945356222,101.998177304,3.51319251178,0.437703680931,82.9462827448,6.10707356819,-2.37773384524,91.9396029129,2.15472787232,1.12757878001,111.667278417,1,1,1,1
247501000,247500000,0.00789924459363,0.002937020132,0.459175401783,-0.00777676740219,0.00422114969412,-0.000735105960993,0.999960580925,0.0870945250624,0.0324293097745,0.313962433941,-0.137557098908,0.290088224977,0.107249931564,0.679587641733,0.0827569411874,2.15984722351,3.91553864163,1.16371657251,1.2765834328,0.33,0.15,-1.16498531934e-16,0.0,0.0,0.0,0.0,0.0,0.0,0.33,-0.15,3.50013878405e-16,0.0,0.0,0.0,0.0,0.0,0.0,-0.33,0.15,2.63313578634e-16,0.0,0.0,0.0,0.0,0.0,0.0,-0.33,-0.15,-6.81664418596e-17,0.0,0.0,0.0,0.0,0.0,0.0,2.50981981378,3.81403327448,96.1107215161,3.67864122642,0.476888465574,83.6497157239,6.59485464812,-2.47211591629,93.3071261258,2.01444176025,1.07187829964,104.835509928,1,1,1,1
250001000,250000000,0.00811912057141,0.00301834221597,0.45996679305,-0.00794331360634,0.00458427928674,-0.000596947037507,0.999957765011,0.0888126888393,0.0326244345707,0.319045710076,-0.12748885139,0.292747578728,0.110375415414,0.695023659235,0.0733421488304,1.90815965684,4.13646806548,0.963842463288,1.22376292093,0.33,0.15,-1.16498531934e-16,0.0,0.0,0.0,0.0,0.0,0.0,0.33,-0.15,3.50013878405e-16,0.0,0.0,0.0,0.0,0.0,0.0,-0.33,0.15,2.63313578634e-16,0.0,0.0,0.0,0.0,0.0,0.0,-0.33,-0.15,-6.81664418596e-17,0.0,0.0,0.0,0.0,0.0,0.0,2.3480579132,3.58428801537,90.147782621,3.85032630678,0.518189872099,84.3429572617,7.10479491102,-2.56593375639,94.6816005839,1.87443727756,1.01314767409,97.939676273,1,1,1,1
252501000,252500000,0.00834334069794,0.00310012268604,0.460770114646,-0.0080969558593,0.00495039738591,-0.000454880775989,0.999954861959,0.0905700447556,0.0327960167839,0.323510162087,-0.116887711239,0.29490781261,0.113368566832,0.710941353205,0.06392287477,1.66478792429,4.34185428587,0.764418675026,1.17072732672,0.33,0.15,-1.16498531934e-16,0.0,0.0,0.0,0.0,0.0,0.0,0.33,-0.15,3.50013878405e-16,0.0,0.0,0.0,0.0,0.0,0.0,-0.33,0.15,2.63313578634e-16,0.0,0.0,0.0,0.0,0.0,0.0,-0.33,-0.15,-6.81664418596e-17,0.0,0.0,0.0,0.0,0.0,0.0,2.18619128459,3.35148538634,84.1390868819,4.02803179704,0.561360222912,85.0269520078,7.63611852163,-2.65929523216,96.0626208488,1.73527958136,0.951906582644,91.0146097736,1,1,1,1
255001000,255000000,0.0085720044588,0.00318230267174,0.461583845498,-0.00823705224263,0.00531887995887,-0.000309069602291,0.999951881323,0.0923677970024,0.0329440452098,0.327376579559,-0.105792525102,0.296570036686,0.116228923377,0.727340723642,0.0544991190062,1.42973202587,4.5317063226,0.565432330597,1.11753743711,0.33,0.15,-1.16498531934e-16,0.0,0.0,0.0,0.0,0.0,0.0,0.33,-0.15,3.50013878405e-16,0.0,0.0,0.0,0.0,0.0,0.0,-0.33,0.15,2.63313578634e-16,0.0,0.0,0.0,0.0,0.0,0.0,-0.33,-0.15,-6.81664418596e-17,0.0,0.0,0.0,0.0,0.0,0.0,2.02491896841,3.11689298884,78.1143605615,4.21154174137,0.606151840416,85.7026446119,8.18804964471,-2.75230821026,97.4497814821,1.59753382879,0.888674704582,84.0951427525,1,1,1,1
257501000,257500000,0.00880521435006,0.00326482327459,0.462406516507,-0.00836300944511,0.00568910419634,-0.000159676382183,0.999948833026,0.0942071497709,0.0330685086441,0.330665752078,-0.0942421175919,0.297735326722,0.118956178724,0.744221770548,0.0450708815389,1.20299196157,4.70603278691,0.366868884284,1.06425729007,0.33,0.15,-1.16498531934e-16,0.0,0.0,0.0,0.0,0.0,0.0,0.33,-0.15,3.50013878405e-16,0.0,0.0,0.0,0.0,0.0,0.0,-0.33,0.15,2.63313578634e-16,0.0,0.0,0.0,0.0,0.0,0.0,-0.33,-0.15,-6.81664418596e-17,0.0,0.0,0.0,0.0,0.0,0.0,1.86494000512,2.88177842432,72.1033299226,4.40064018391,0.652317047015,86.3709797236,8.75981244504,-2.84508055732,98.8426770453,1.46176517698,0.823971719189,77.2161075322,1,1,1,1
260001000,260000000,0.00904307587825,0.00334762556813,0.463236710546,-0.00847428273894,0.00606044847811,-6.86425476221e-06,0.999945727252,0.0960893072522,0.0331693958827,0.333398469229,-0.082275292282,0.298404720129,0.121550190288,0.761584493921,0.0356381623682,0.984567731401,4.86484190143,0.168712214071,1.01095377678,0.33,0.15,-1.16498531934e-16,0.0,0.0,0.0,0.0,0.0,0.0,0.33,-0.15,3.50013878405e-16,0.0,0.0,0.0,0.0,0.0,0.0,-0.33,0.15,2.63313578634e-16,0.0,0.0,0.0,0.0,0.0,0.0,-0.33,-0.15,-6.81664418596e-17,0.0,0.0,0.0,0.0,0.0,0.0,1.70695343516,2.64740929423,66.1357212281,4.59511116885,0.699608165113,87.0329019924,9.35063108737,-2.93772013999,100.2409021,1.32853878306,0.75831730575,70.4123364354,1,1,1,1
262501000,262500000,0.0092856975604,0.00343065059784,0.464073062465,-0.0085703759576,0.00643229233418,0.000149203542469,0.999942574356,0.0980154736375,0.0332466957212,0.335595520597,-0.0699308326566,0.298579212139,0.124010985868,0.779428893761,0.026200961494,0.774459335358,5.00814151779,-0.0290552869565,0.957696244482,0.33,0.15,-1.16498531934e-16,0.0,0.0,0.0,0.0,0.0,0.0,0.33,-0.15,3.50013878405e-16,0.0,0.0,0.0,0.0,0.0,0.0,-0.33,0.15,2.63313578634e-16,0.0,0.0,0.0,0.0,0.0,0.0,-0.33,-0.15,-6.81664418596e-17,0.0,0.0,0.0,0.0,0.0,0.0,1.55165829901,2.41505320002,60.2412607405,4.79473874034,0.747777517115,87.6893560682,9.95972973646,-3.03033482491,101.644051208,1.19841980415,0.692231143548,63.7186617843,1,1,1,1
265001000,265000000,0.00953319092402,0.00351383938123,0.464914259085,-0.00865084147503,0.00680401640187,0.000308363855755,0.99993938477,0.099986853118,0.0333003969554,0.337277695767,-0.0572475030189,0.298259752204,0.126338769287,0.79775497007,0.0167592789164,0.572666773441,5.13593913162,-0.226452620104,0.904556099655,0.33,0.15,-1.16498531934e-16,0.0,0.0,0.0,0.0,0.0,0.0,0.33,-0.15,3.50013878405e-16,0.0,0.0,0.0,0.0,0.0,0.0,-0.33,0.15,2.63313578634e-16,0.0,0.0,0.0,0.0,0.0,0.0,-0.33,-0.15,-6.81664418596e-17,0.0,0.0,0.0,0.0,0.0,0.0,1.39975363712,2.18597774313,54.4496747229,4.99930694254,0.796577425426,88.3412866004,10.5863325571,-3.12303247873,103.05171893,1.07197339739,0.626232911868,57.1699159017,1,1,1,1
267501000,267500000,0.00978567050706,0.00359713290778,0.465759039205,-0.00871528018636,0.00717500237913,0.000470453803395,0.999936168915,0.102004649885,0.0333304883811,0.338465784326,-0.0442640493647,0.297447240623,0.128533925045,0.816562722846,0.00731311463539,0.379190045651,5.24824189493,-0.423500091455,0.851606411829,0.33,0.15,-1.16498531934e-16,0.0,0.0,0.0,0.0,0.0,0.0,0.33,-0.15,3.50013878405e-16,0.0,0.0,0.0,0.0,0.0,0.0,-0.33,0.15,2.63313578634e-16,0.0,0.0,0.0,0.0,0.0,0.0,-0.33,-0.15,-6.81664418596e-17,0.0,0.0,0.0,0.0,0.0,0.0,1.25193848995,1.96145052503,48.790689438,5.20859981962,0.845760212448,88.9896382387,11.229663714,-3.21592096807,104.463499829,0.949764719905,0.560842289992,50.80093111,1,1,1,1
270001000,270000000,0.010043253858,0.00368047213896,0.466606193593,-0.00876334148995,0.00754463297429,0.00063531096911,0.999932937121,0.104070068129,0.0333369587938,0.339180575857,-0.031019200229,0.296142525394,0.130597021983,0.835852152089,-0.00213753134909,0.194029151988,5.34505662571,-0.620219223161,0.798921517834,0.33,0.15,-1.16498531934e-16,0.0,0.0,0.0,0.0,0.0,0.0,0.33,-0.15,3.50013878405e-16,0.0,0.0,0.0,0.0,0.0,0.0,-0.33,0.15,2.63313578634e-16,0.0,0.0,0.0,0.0,0.0,0.0,-0.33,-0.15,-6.81664418596e-17,0.0,0.0,0.0,0.0,0.0,0.0,1.10891189795,1.74273914715,43.2940311485,5.42240141575,0.895078200587,89.6353556329,11.8889473719,-3.3091081596,105.878988466,0.832358928822,0.496578957205,44.6465397317,1,1,1,1
272501000,272500000,0.0103060615358,0.00376379800823,0.467454564994,-0.00879472327099,0.00791229185255,0.000802773599398,0.999929699546,0.106184312042,0.0333197969896,0.339442859947,-0.0175516675119,0.294346399278,0.132528815957,0.8556232578,-0.011592659037,0.0171840924504,5.42638981481,-0.816632665628,0.746576626598,0.33,0.15,-1.16498531934e-16,0.0,0.0,0.0,0.0,0.0,0.0,0.33,-0.15,3.50013878405e-16,0.0,0.0,0.0,0.0,0.0,0.0,-0.33,0.15,2.63313578634e-16,0.0,0.0,0.0,0.0,0.0,0.0,-0.33,-0.15,-6.81664418596e-17,0.0,0.0,0.0,0.0,0.0,0.0,0.971372901589,1.53111121095,37.9894261173,5.64049577508,0.944283712246,90.2793834325,12.5634076957,-3.40270191994,107.297779402,0.720321181271,0.433962592791,38.7415740894,1,1,1,1
275001000,275000000,0.0105742171098,0.00384705142105,0.468303048128,-0.00880917188641,0.00827736357966,0.000972680803794,0.999926466114,0.108348585815,0.0332789917639,0.339273426181,-0.003900147291,0.29205959709,0.134330251521,0.875876039979,-0.0210522684284,-0.15134513296,5.49224762991,-1.01276411061,0.694647424472,0.33,0.15,-1.16498531934e-16,0.0,0.0,0.0,0.0,0.0,0.0,0.33,-0.15,3.50013878405e-16,0.0,0.0,0.0,0.0,0.0,0.0,-0.33,0.15,2.63313578634e-16,0.0,0.0,0.0,0.0,0.0,0.0,-0.33,-0.15,-6.81664418596e-17,0.0,0.0,0.0,0.0,0.0,0.0,0.840020541315,1.32783431788,32.9066006071,5.86266694178,0.993129069829,90.9226662871,13.25226885,-3.49681011575,108.719467199,0.614216634381,0.373512876032,33.1208665055,1,1,1,1
277501000,277500000,0.0108478471599,0.00393017325486,0.469150589685,-0.00880648215125,0.00863923356279,0.00114487275697,0.999923246445,0.110564093639,0.0332145319127,0.338693064144,0.00989667937303,0.289282793207,0.136002462636,0.896610498626,-0.0305163595232,-0.311558524244,5.5426359167,-1.20863820524,0.643209681106,0.33,0.15,-1.16498531934e-16,0.0,0.0,0.0,0.0,0.0,0.0,0.33,-0.15,3.50013878405e-16,0.0,0.0,0.0,0.0,0.0,0.0,-0.33,0.15,2.63313578634e-16,0.0,0.0,0.0,0.0,0.0,0.0,-0.33,-0.15,-6.81664418596e-17,0.0,0.0,0.0,0.0,0.0,0.0,0.71555385759,1.13417606939,28.0752808808,6.08869896001,1.04136659574,91.5661488464,13.9547549996,-3.59154061366,110.143646418,0.514610445282,0.315749486214,27.8192493026,1,1,1,1
280001000,280000000,0.0111270812765,0.00401310435909,0.469996188333,-0.00878649732645,0.00899728798919,0.00131919090157,0.999920049808,0.112832039706,0.0331264062315,0.337722563422,0.0238001456297,0.28601659928,0.137546772378,0.91782663374,-0.0399849323214,-0.463456081402,5.5775601972,-1.40428046693,0.592338855865,0.33,0.15,-1.16498531934e-16,0.0,0.0,0.0,0.0,0.0,0.0,0.33,-0.15,3.50013878405e-16,0.0,0.0,0.0,0.0,0.0,0.0,-0.33,0.15,2.63313578634e-16,0.0,0.0,0.0,0.0,0.0,0.0,-0.33,-0.15,-6.81664418596e-17,0.0,0.0,0.0,0.0,0.0,0.0,0.598671890873,0.951404066918,23.5251932011,6.31837587394,1.08874861239,92.2107757601,14.6700903094,-3.68700128031,111.569911622,0.422067771103,0.261192102619,22.8715548032,1,1,1,1
282501000,282500000,0.0114120520604,0.00409578555516,0.470838894711,-0.00874910910801,0.00935091376263,0.00149547815082,0.999916885069,0.115153628205,0.0330146035163,0.336382713599,0.0377715980247,0.282261562167,0.138964691675,0.939524445322,-0.0494579868231,-0.607037804433,5.59702566528,-1.59971719925,0.542109704816,0.33,0.15,-1.16498531934e-16,0.0,0.0,0.0,0.0,0.0,0.0,0.33,-0.15,3.50013878405e-16,0.0,0.0,0.0,0.0,0.0,0.0,-0.33,0.15,2.63313578634e-16,0.0,0.0,0.0,0.0,0.0,0.0,-0.33,-0.15,-6.81664418596e-17,0.0,0.0,0.0,0.0,0.0,0.0,0.49007368162,0.780785911927,19.2860638308,6.55148172773,1.13502744217,92.8574916777,15.397498944,-3.78329998235,112.997857371,0.337153768973,0.210360404532,18.3126153297,1,1,1,1
285001000,285000000,0.011702895123,0.00417815763648,0.471677811435,-0.00869425761764,0.00969949843822,0.00167357908964,0.999913760655,0.117530063329,0.0328791125627,0.334694304261,0.0517723956707,0.27801816207,0.140257917056,0.961703933372,-0.0589355230282,-0.742303693337,5.6010371794,-1.79497540873,0.492595888281,0.33,0.15,-1.16498531934e-16,0.0,0.0,0.0,0.0,0.0,0.0,0.33,-0.15,3.50013878405e-16,0.0,0.0,0.0,0.0,0.0,0.0,-0.33,0.15,2.63313578634e-16,0.0,0.0,0.0,0.0,0.0,0.0,-0.33,-0.15,-6.81664418596e-17,0.0,0.0,0.0,0.0,0.0,0.0,0.39045827029,0.623589205862,15.3876190328,6.78780056554,1.17995540749,93.507241249,16.1362050682,-3.88054458642,114.427078228,0.260433596021,0.163774071237,14.1772632048,1,1,1,1
287501000,287500000,0.0119997490861,0.00426016136844,0.472512093091,-0.00862193139477,0.0100424301556,0.00185334017345,0.999910684524,0.119962549269,0.0327199221664,0.332678124994,0.0657639093976,0.273286810884,0.141428327424,0.984365097889,-0.0684175409368,-0.869253748115,5.58959925272,-1.99008272256,0.443869578964,0.33,0.15,-1.16498531934e-16,0.0,0.0,0.0,0.0,0.0,0.0,0.33,-0.15,3.50013878405e-16,0.0,0.0,0.0,0.0,0.0,0.0,-0.33,0.15,2.63313578634e-16,0.0,0.0,0.0,0.0,0.0,0.0,-0.33,-0.15,-6.81664418596e-17,0.0,0.0,0.0,0.0,0.0,0.0,0.30052469734,0.481081550174,11.8595850698,7.02711643155,1.22328483076,94.1609691235,16.8854328468,-3.97884295917,115.857168753,0.192472409376,0.121952782016,10.500330751,1,1,1,1
290001000,290000000,0.0123027555819,0.00434173748844,0.473340946243,-0.00853216739002,0.010379097571,0.00203460992345,0.999907664145,0.122452290216,0.0325370211232,0.330354965383,0.0797075208734,0.268067850744,0.142477979848,1.00750793887,-0.0779040405488,-0.987887968767,5.56271604057,-2.18506730729,0.396001070664,0.33,0.15,-1.16498531934e-16,0.0,0.0,0.0,0.0,0.0,0.0,0.33,-0.15,3.50013878405e-16,0.0,0.0,0.0,0.0,0.0,0.0,-0.33,0.15,2.63313578634e-16,0.0,0.0,0.0,0.0,0.0,0.0,-0.33,-0.15,-6.81664418596e-17,0.0,0.0,0.0,0.0,0.0,0.0,0.220972003229,0.354530546311,8.7316882046,7.2692133699,1.26476803438,94.8196199509,17.6444064445,-4.07830296722,117.287723509,0.133835366168,0.0854162161538,7.31665029065,1,1,1,1
292501000,292500000,0.0126120592532,0.00442282670585,0.474163629426,-0.00842505096011,0.0107088897882,0.00221723911731,0.999904706483,0.12500049036,0.0323303982289,0.327745615012,0.0935646216921,0.262361552778,0.143409104373,1.03113245633,-0.0873950218643,-1.09820635529,5.52039132546,-2.37995778845,0.349058387575,0.33,0.15,-1.16498531934e-16,0.0,0.0,0.0,0.0,0.0,0.0,0.33,-0.15,3.50013878405e-16,0.0,0.0,0.0,0.0,0.0,0.0,-0.33,0.15,2.63313578634e-16,0.0,0.0,0.0,0.0,0.0,0.0,-0.33,-0.15,-6.81664418596e-17,0.0,0.0,0.0,0.0,0.0,0.0,0.152499228415,0.245203795724,6.0336547,7.51387542477,1.30415734076,95.4841383809,18.4123500261,-4.17903247724,118.718337057,0.0850876235244,0.0546840529344,4.6610541464,1,1,1,1
295001000,295000000,0.0129278077532,0.00450336970203,0.47497945315,-0.00830071586423,0.0110311962891,0.00240108097429,0.999901817998,0.127608353894,0.0321000422792,0.324870863468,0.10729661242,0.256168116059,0.144224097862,1.05523865025,-0.0968904848831,-1.20020890769,5.46262849976,-2.57478317115,0.303106894168,0.33,0.15,-1.16498531934e-16,0.0,0.0,0.0,0.0,0.0,0.0,0.33,-0.15,3.50013878405e-16,0.0,0.0,0.0,0.0,0.0,0.0,-0.33,0.15,2.63313578634e-16,0.0,0.0,0.0,0.0,0.0,0.0,-0.33,-0.15,-6.81664418596e-17,0.0,0.0,0.0,0.0,0.0,0.0,0.0958054133545,0.154368899862,3.7952108188,7.76088664031,1.34120507229,96.155469063,19.1884877564,-4.28113935585,120.148603959,0.0467943385756,0.0302759716413,2.56837464073,1,1,1,1
297501000,297500000,0.0132501517456,0.00458330713036,0.4757877799,-0.00815934426182,0.0113454068638,0.00258599133377,0.999899004647,0.130277085009,0.0318459420697,0.321751500335,0.120864901596,0.249487666755,0.14492551686,1.07982652064,-0.106390429605,-1.29389562596,5.38943054616,-2.7695727616,0.258208905676,0.33,0.15,-1.16498531934e-16,0.0,0.0,0.0,0.0,0.0,0.0,0.33,-0.15,3.50013878405e-16,0.0,0.0,0.0,0.0,0.0,0.0,-0.33,0.15,2.63313578634e-16,0.0,0.0,0.0,0.0,0.0,0.0,-0.33,-0.15,-6.81664418596e-17,0.0,0.0,0.0,0.0,0.0,0.0,0.0515895985065,0.0832934601755,2.04608282379,8.0100310607,1.37566355138,96.834556647,19.9720438001,-4.38473146971,121.578118775,0.0195206684503,0.0127116515584,1.07344409616,1,1,1,1
300001000,300000000,0.0135792449047,0.00466257961616,0.476588024133,-0.00800116671186,0.0116509115399,0.00277182882594,0.999896271898,0.133007887895,0.0315680863964,0.3184083152,0.134230904683,0.242320257474,0.145516069481,1.10489606749,-0.115894856031,-1.37926651011,5.30080001625,-2.96435608968,0.214423299163,0.33,0.15,-1.16498531934e-16,0.0,0.0,0.0,0.0,0.0,0.0,0.33,-0.15,3.50013878405e-16,0.0,0.0,0.0,0.0,0.0,0.0,-0.33,0.15,2.63313578634e-16,0.0,0.0,0.0,0.0,0.0,0.0,-0.33,-0.15,-6.81664418596e-17,0.0,0.0,0.0,0.0,0.0,0.0,0.0205508243286,0.0332450781132,0.815996977765,8.2610927301,1.40728510044,97.5223457824,20.762242322,-4.48991668545,123.006476069,0.00383177027759,0.00251077196923,0.211094835211,1,1,1,1
302501000,302500000,0.0139152439151,0.00474112775678,0.477379652282,-0.00782646217368,0.0119471005132,0.00295845503388,0.999893624754,0.135801966743,0.0312664640548,0.314862097647,0.147356042958,0.234665866797,0.145998606333,1.13044729081,-0.12540376416,-1.45632156013,5.1967390071,-3.15916283238,0.171805125183,0.33,0.15,-1.16498531934e-16,0.0,0.0,0.0,0.0,0.0,0.0,0.33,-0.15,3.50013878405e-16,0.0,0.0,0.0,0.0,0.0,0.0,-0.33,0.15,2.63313578634e-16,0.0,0.0,0.0,0.0,0.0,0.0,-0.329996040359,-0.150000211974,4.26182144303e-06,0.01469861831,-0.000786872090722,0.0158157622503,27.2263314885,-1.45752749879,29.2700448324,0.00338813127877,0.00549135512537,0.134679543511,8.51385569266,1.43582204187,98.2197811189,21.5583074869,-4.59680286971,124.433270401,0.0,0.0,0.0,1,1,1,0
305001000,305000000,0.0142583084719,0.00481889212154,0.478162182753,-0.00763555800913,0.0122333640773,0.00314573464572,0.999891067772,0.138660525746,0.0309410638408,0.311133637261,0.160201742348,0.226524399009,0.146376110459,1.15648019061,-0.134917153993,-1.52506077602,5.07724913645,-3.35402273826,0.130405220032,0.330007172331,0.150000602398,8.82565180008e-06,0.0176095596904,0.00147901100548,0.0216589975243,21.5574604171,1.81059161999,26.4785223394,0.33,-0.15,3.50013878405e-16,0.0,0.0,0.0,0.0,0.0,0.0,-0.33,0.15,2.63313578634e-16,0.0,0.0,0.0,0.0,0.0,0.0,-0.329875011004,-0.150006691129,0.000134162362828,0.0818050759727,-0.00437933211167,0.0876615691212,26.4588346417,-1.41644051797,28.2066006643,0.0,0.0,0.0,8.76810399256,1.46102669808,98.9278073061,22.3594634594,-4.70549788914,125.858096332,0.0,0.0,0.0,0,1,1,0
307501000,307500000,0.0146086012808,0.00489581325176,0.478935185924,-0.0074288299864,0.0125090925547,0.00333353559603,0.99988860511,0.141584769093,0.0305918745501,0.307243723628,0.172729432197,0.217895684013,0.146651686325,1.18299476686,-0.144435025529,-1.58548415779,4.94233151647,-3.54896555292,0.090269818567,0.330117986491,0.150009909579,0.000144777165966,0.0708110474733,0.00594735588874,0.0867256690257,21.0037298093,1.76408428662,25.5748148617,0.33,-0.15,3.50013878405e-16,0.0,0.0,0.0,0.0,0.0,0.0,-0.33,0.15,2.63313578634e-16,0.0,0.0,0.0,0.0,0.0,0.0,-0.329588613931,-0.150022023037,0.000440354158365,0.146992791518,-0.00786907468059,0.156848765572,25.6913377948,-1.37535353716,27.1431564963,0.0,0.0,0.0,9.02362167396,1.48265139146,99.6473689937,23.1649344044,-4.81610961038,127.280548426,0.0,0.0,0.0,0,1,1,0
310001000,310000000,0.0149662880578,0.00497183166073,0.479698284151,-0.00720670228531,0.0127736762284,0.00352172919525,0.99988624056,0.144575900977,0.0302188849784,0.303213146334,0.184900543971,0.208779477426,0.146828547827,1.20999101959,-0.153957378769,-1.63759170542,4.79198672642,-3.74402094538,0.0514401676149,0.330360073963,0.150030242287,0.000440571273016,0.122628208737,0.0102994324386,0.149533071833,20.4499992015,1.71757695325,24.6711073839,0.33,-0.15,3.50013878405e-16,0.0,0.0,0.0,0.0,0.0,0.0,-0.33,0.15,2.63313578634e-16,0.0,0.0,0.0,0.0,0.0,0.0,-0.329141645998,-0.150045950905,0.000916190682004,0.210261764947,-0.0112560997975,0.223377351603,24.9238409479,-1.33426655634,26.0797123282,0.0,0.0,0.0,9.28019278101,1.50044844443,100.379410831,23.9739444866,-4.92874590008,128.700221242,0.0,0.0,0.0,0,1,1,0
312501000,312500000,0.0153315375296,0.00504688783374,0.480451151761,-0.00696964750406,0.0130265052743,0.00371019024622,0.999883977601,0.147635125588,0.0298220839215,0.299062694963,0.196676509886,0.199175460865,0.146910005342,1.23746894878,-0.163484213712,-1.68138341894,4.62621478457,-3.93921843546,0.0139521399311,0.330729973929,0.150061309851,0.000890559801216,0.173061043481,0.014535240655,0.210081205945,19.8962685938,1.67106961989,23.7673999061,0.33,-0.15,3.50013878405e-16,0.0,0.0,0.0,0.0,0.0,0.0,-0.33,0.15,2.63313578634e-16,0.0,0.0,0.0,0.0,0.0,0.0,-0.328538904058,-0.150078217938,0.00155502540769,0.271611996258,-0.0145404074623,0.287247327213,24.1563441011,-1.29317957553,25.0162681602,0.0,0.0,0.0,9.53760135789,1.51417017939,101.124877469,24.7857178709,-5.04351462487,130.116709343,0.0,0.0,0.0,0,1,1,0
315001000,315000000,0.0157045214332,0.00512092222809,0.481193515055,-0.00671818666763,0.0132669696951,0.00389879714668,0.999881819449,0.150763647118,0.0294014601751,0.294813159101,0.208018761475,0.18908324241,0.146899451811,1.26542855445,-0.173015530358,-1.71685929832,4.44501511961,-4.13458732211,-0.0221641512825,0.331224225575,0.1501028216,0.00148909457883,0.222109551706,0.018654780538,0.268370071363,19.342537986,1.62456228652,22.8636924283,0.33,-0.15,3.50013878405e-16,0.0,0.0,0.0,0.0,0.0,0.0,-0.33,0.15,2.63313578634e-16,0.0,0.0,0.0,0.0,0.0,0.0,-0.327785184968,-0.150118567344,0.00235021180939,0.331043485452,-0.0177219976751,0.348458692403,23.3888472542,-1.25209259471,23.9528239921,0.0,0.0,0.0,9.79563144875,1.52356891874,101.884713555,25.5994787218,-5.16052365139,131.52960729,0.0,0.0,0.0,0,1,1,0
317501000,317500000,0.0160854145161,0.00519387527304,0.481925152311,-0.00645288923766,0.0134944592552,0.0040874319767,0.999879769117,0.153962669758,0.028957002535,0.290485328333,0.218888728075,0.178502357241,0.146800347855,1.29386983658,-0.182551328708,-1.74401934358,4.24838654189,-4.33015661273,-0.0568847373221,0.331839368082,0.150154486863,0.00223052743412,0.269773733411,0.0226580520876,0.324399668087,18.7888073782,1.57805495315,21.9599849505,0.33,-0.15,3.50013878405e-16,0.0,0.0,0.0,0.0,0.0,0.0,-0.33,0.15,2.63313578634e-16,0.0,0.0,0.0,0.0,0.0,0.0,-0.326885285583,-0.150166742329,0.00329510336103,0.388556232529,-0.0208008704359,0.407011447174,22.6213504074,-1.2110056139,22.8893798241,0.0,0.0,0.0,10.0540670978,1.52839698488,102.659863741,26.4144512043,-5.2798808463,132.938509645,0.0,0.0,0.0,0,1,1,0
320001000,320000000,0.0164743945364,0.00526568736985,0.482645893776,-0.00617437312396,0.0137083634177,0.00427598057013,0.999877829477,0.157233397698,0.0284886997968,0.286099992245,0.229247835245,0.167432268459,0.146616205937,1.32279279517,-0.192091608761,-1.76286355472,4.03632721479,-4.52595495341,-0.0901921784024,0.332571940636,0.15021601497,0.00310921019535,0.316053588597,0.0265450553038,0.378169996116,18.2350767705,1.53154761979,21.0562774727,0.33,-0.15,3.50013878405e-16,0.0,0.0,0.0,0.0,0.0,0.0,-0.33,0.15,2.63313578634e-16,0.0,0.0,0.0,0.0,0.0,0.0,-0.325844002757,-0.150222486098,0.00438305353657,0.444150237489,-0.0237770257446,0.462905591524,21.8538535605,-1.16991863308,21.825935656,0.0,0.0,0.0,10.3126923491,1.52840670022,103.451272675,27.2298594831,-5.40169407622,134.343010969,0.0,0.0,0.0,0,1,1,0
322501000,322500000,0.0168716422625,0.00533629889177,0.483355621675,-0.0058833046976,0.013908071282,0.00446433256876,0.999876003319,0.160577035131,0.0279965407564,0.281677940421,0.239057503117,0.155872368072,0.146350573559,1.35219743024,-0.201636370518,-1.77339193172,3.80883462672,-4.72201056017,-0.12207594757,0.33341848242,0.150287115249,0.00411949469079,0.360949117263,0.0303157901865,0.42968105545,17.6813461627,1.48504028642,20.1525699949,0.33,-0.15,3.50013878405e-16,0.0,0.0,0.0,0.0,0.0,0.0,-0.33,0.15,2.63313578634e-16,0.0,0.0,0.0,0.0,0.0,0.0,-0.324666133347,-0.15028554186,0.00560741580996,0.497825500332,-0.0266504636013,0.516141125454,21.0863567136,-1.12883165227,20.762491488,0.0,0.0,0.0,10.5712912469,1.52335038717,104.259885007,28.0449277229,-5.52607120781,135.742705824,0.0,0.0,0.0,0,1,1,0
325001000,325000000,0.0172773414734,0.00540565018405,0.484054270206,-0.00558039880552,0.0140929715248,0.00465238145841,0.999874293424,0.163994786246,0.0274805142095,0.277239962448,0.24827914467,0.143821978156,0.146007015498,1.38208374177,-0.211185613978,-1.7756044746,3.56590556394,-4.91835115102,-0.152532814127,0.334375532617,0.150367497031,0.00525573274869,0.40446031941,0.0339702567359,0.47893284609,17.1276155549,1.43853295305,19.2488625171,0.33,-0.15,3.50013878405e-16,0.0,0.0,0.0,0.0,0.0,0.0,-0.33,0.15,2.63313578634e-16,0.0,0.0,0.0,0.0,0.0,0.0,-0.323356474208,-0.150355652819,0.00696154365516,0.549582021057,-0.0294211840059,0.566718048964,20.3188598668,-1.08774467145,19.69904732,0.0,0.0,0.0,10.8296478354,1.51298036812,105.086645387,28.8588800885,-5.65312010771,137.137188772,0.0,0.0,0.0,0,1,1,0
327501000,327500000,0.0176916789586,0.0054736815639,0.48474182554,-0.0052664187869,0.0142624523417,0.0048400245857,0.999872702622,0.167487855236,0.0269406089518,0.27280684791,0.256874163944,0.131280352185,0.14558909509,1.41245172977,-0.220739339142,-1.76950118336,3.30753608479,-5.11500387908,-0.181567226585,0.335439630412,0.150456869643,0.00651227619732,0.446587195038,0.0375084549518,0.525925368036,16.5738849472,1.39202561969,18.3451550394,0.33,-0.15,3.50013878405e-16,0.0,0.0,0.0,0.0,0.0,0.0,-0.33,0.15,2.63313578634e-16,0.0,0.0,0.0,0.0,0.0,0.0,-0.321919822194,-0.150432562182,0.0084387905461,0.599419799666,-0.0320891869586,0.614636362054,19.5513630199,-1.04665769064,18.6356031519,0.0,0.0,0.0,11.0875461586,1.49704896549,105.932498465,29.6709407447,-5.78294864255,138.526054374,0.0,0.0,0.0,0,1,1,0
330001000,330000000,0.018114844518,0.00554033332054,0.485418325823,-0.00494217649103,0.0144159013915,0.00502716315456,0.999871233864,0.171057446292,0.026376813779,0.268399386393,0.264803954191,0.118246676525,0.145100354553,1.44330139424,-0.230297546009,-1.75508205798,3.03372149557,-5.31199526652,-0.209191695172,0.336607314987,0.150554942415,0.00788347686496,0.487329744146,0.0409303848343,0.570658621287,16.0201543394,1.34551828632,17.4414475616,0.33,-0.15,3.50013878405e-16,0.0,0.0,0.0,0.0,0.0,0.0,-0.33,0.15,2.63313578634e-16,0.0,0.0,0.0,0.0,0.0,0.0,-0.320360974161,-0.150516013155,0.0100325099567,0.647338836157,-0.0346544724591,0.659896064723,18.7838661731,-1.00557070982,17.5721589839,0.0,0.0,0.0,11.3447702608,1.47530850168,106.79838889,30.4803338561,-5.91566467898,139.908897192,0.0,0.0,0.0,0,1,1,0
332501000,332500000,0.018547030962,0.00560554571519,0.486083861175,-0.0046085322969,0.0145527057429,0.00521370220141,0.999869890283,0.174704763605,0.025789117487,0.264038367482,0.272029895963,0.104720072093,0.144544294351,1.47463273517,-0.239860234579,-1.73234709849,2.74445632869,-5.50935113939,-0.23542717391,0.337875125527,0.150661424677,0.00936368657985,0.526687966735,0.0442360463834,0.613132605844,15.4664237316,1.29901095296,16.5377400838,0.33,-0.15,3.50013878405e-16,0.0,0.0,0.0,0.0,0.0,0.0,-0.33,0.15,2.63313578634e-16,0.0,0.0,0.0,0.0,0.0,0.0,-0.318684726965,-0.150605748946,0.011736055361,0.693339130531,-0.0371170405077,0.702497156973,18.0163693262,-0.964483729009,16.5087148158,0.0,0.0,0.0,11.6011041862,1.44751129908,107.685261311,31.2862835877,-6.05137608364,141.285311786,0.0,0.0,0.0,0,1,1,0
335001000,335000000,0.0189884341114,0.00566925898104,0.486738573688,-0.00426639513444,0.0146722518231,0.00539955054788,0.999868675253,0.178431011365,0.0251775088714,0.259744580762,0.278513355158,0.0906995961793,0.143924351614,1.50644575258,-0.249427404853,-1.70129630486,2.43973432347,-5.70709656334,-0.26030344229,0.339239601215,0.150776025757,0.0109472571703,0.564661862804,0.0474254395991,0.653347321706,14.9126931239,1.25250361959,15.634032606,0.33,-0.15,3.50013878405e-16,0.0,0.0,0.0,0.0,0.0,0.0,-0.33,0.15,2.63313578634e-16,0.0,0.0,0.0,0.0,0.0,0.0,-0.31689587746,-0.15070151276,0.0135427802329,0.737420682788,-0.0394768911042,0.742439638803,17.2488724794,-0.923396748194,15.4452706478,0.0,0.0,0.0,11.8563319789,1.41340968011,108.594060379,32.0880141041,-6.19019072318,142.65489272,0.0,0.0,0.0,0,1,1,0
337501000,337500000,0.0194392527977,0.00573141332328,0.48738265743,-0.0039167225074,0.0147739253688,0.00558462073017,0.999867592447,0.182237393765,0.024541976728,0.255538815819,0.284215681013,0.0761842444246,0.143243877593,1.53874044645,-0.258999056831,-1.66192967711,2.11954840997,-5.90525578022,-0.283859486563,0.340697281235,0.150898454984,0.0126285404645,0.601251432354,0.0504985644814,0.691302768874,14.3589625161,1.20599628622,14.7303251282,0.33,-0.15,3.50013878405e-16,0.0,0.0,0.0,0.0,0.0,0.0,-0.33,0.15,2.63313578634e-16,0.0,0.0,0.0,0.0,0.0,0.0,-0.314999222502,-0.150803047804,0.0154460380464,0.779583492928,-0.0417340242486,0.779723510212,16.4813756325,-0.882309767379,14.3818264797,0.0,0.0,0.0,12.110237683,1.37275596717,109.525730743,32.8847495701,-6.33221646424,144.017234554,0.0,0.0,0.0,0,1,1,0
340001000,340000000,0.0198996888626,0.00579194891907,0.488016358443,-0.00356052051798,0.0148571113803,0.0057688289038,0.999866645882,0.186125114994,0.0238825098525,0.251441862239,0.289098204064,0.0611729529616,0.142506114167,1.57151681679,-0.268575190512,-1.61424721523,1.78389069659,-6.1038521454,-0.306143880675,0.342244704771,0.151028421689,0.0144018882907,0.636456675385,0.0534554210302,0.726998947347,13.8052319083,1.15948895286,13.8266176504,0.33,-0.15,3.50013878405e-16,0.0,0.0,0.0,0.0,0.0,0.0,-0.33,0.15,2.63313578634e-16,0.0,0.0,0.0,0.0,0.0,0.0,-0.312999558947,-0.150910097283,0.0174391822753,0.81982756095,-0.0438884399411,0.814348771201,15.7138787856,-0.841222786564,13.3183823117,0.0,0.0,0.0,12.3626053427,1.32530248267,110.481217053,33.6757141505,-6.47756117345,145.37193185,0.0,0.0,0.0,0,1,1,0
342501000,342500000,0.0203699471585,0.00585080591759,0.488639974742,-0.00319884389311,0.0149211940777,0.00595209472286,0.999865839967,0.190095379246,0.0231990970406,0.247474509605,0.293122234084,0.0456646007067,0.1417141694,1.60477486359,-0.278155805896,-1.55824891922,1.43275246172,-6.30290806599,-0.327215166862,0.343878411007,0.151165635199,0.0162616524773,0.670277591896,0.0562960092457,0.760435857126,13.2515013006,1.11298161949,12.9229101726,0.33,-0.15,3.50013878405e-16,0.0,0.0,0.0,0.0,0.0,0.0,-0.33,0.15,2.63313578634e-16,0.0,0.0,0.0,0.0,0.0,0.0,-0.310901683649,-0.151022404406,0.0195155663937,0.858152886856,-0.0459401381815,0.84631542177,14.9463819388,-0.800135805749,12.2549381436,0.0,0.0,0.0,12.6132190022,1.270801549,111.461463958,34.46013201,-6.62633271747,146.71857917,0.0,0.0,0.0,0,1,1,0
345001000,345000000,0.0208502355482,0.00590792443999,0.489253856316,-0.0028327960124,0.0149655568595,0.00613434119258,0.999865179528,0.194149390709,0.0224917270882,0.243657547504,0.296249057999,0.0296580118075,0.140870992145,1.63851458687,-0.287740902983,-1.49393478909,1.0661241501,-6.50244493981,-0.347142235931,0.345594939126,0.151309804845,0.0182021848524,0.702714181888,0.0590203291277,0.79161349821,12.6977706928,1.06647428612,12.0192026948,0.33,-0.15,3.50013878405e-16,0.0,0.0,0.0,0.0,0.0,0.0,-0.33,0.15,2.63313578634e-16,0.0,0.0,0.0,0.0,0.0,0.0,-0.308710393465,-0.151139712376,0.0216685438755,0.894559470644,-0.0478891189698,0.875623461919,14.1788850919,-0.759048824934,11.1914939756,0.0,0.0,0.0,12.8618627057,1.20900548857,112.467416108,35.2372273133,-6.77863896293,148.056771074,0.0,0.0,0.0,0,1,1,0
347501000,347500000,0.0213407649049,0.00596324457941,0.489858405129,-0.00246352893791,0.0149895822647,0.00631549449423,0.999864669832,0.198288353577,0.021760388791,0.240011765521,0.298439937805,0.0131519582418,0.139979345694,1.67273598661,-0.297330481775,-1.42130482483,0.683995374501,-6.70248309503,-0.366004707245,0.347390828311,0.151460639955,0.0202178372444,0.73376644536,0.0616283806763,0.8205318706,12.144040085,1.01996695276,11.115495217,0.33,-0.15,3.50013878405e-16,0.0,0.0,0.0,0.0,0.0,0.0,-0.33,0.15,2.63313578634e-16,0.0,0.0,0.0,0.0,0.0,0.0,-0.306430485248,-0.151261764403,0.0238914681946,0.929047312316,-0.0497353823061,0.902272891648,13.4113882451,-0.717961844119,10.1280498075,0.0,0.0,0.0,13.1083204973,1.13966662379,113.500018152,36.0062242254,-6.93458777647,149.386102126,0.0,0.0,0.0,0,1,1,0
350001000,350000000,0.0218417491124,0.00601670640099,0.490454075119,-0.00209224344557,0.0149926519367,0.00649548378132,0.999864316593,0.20251347204,0.0210050709446,0.236557953242,0.299656108497,-0.00385483743424,0.139041780486,1.70743906282,-0.306924542269,-1.34035902645,0.286354923141,-6.90304173063,-0.383893308428,0.349262617747,0.151617849858,0.0223029614815,0.763434382313,0.0641201638914,0.847190974295,11.5903094773,0.97345961939,10.2117877393,0.33,-0.15,3.50013878405e-16,0.0,0.0,0.0,0.0,0.0,0.0,-0.33,0.15,2.63313578634e-16,0.0,0.0,0.0,0.0,0.0,0.0,-0.304066755855,-0.15138830369,0.026177692825,0.96161641187,-0.0514789281904,0.926263710957,12.6438913982,-0.676874863304,9.0646056395,0.0,0.0,0.0,13.3523764212,1.06253727706,114.560214741,36.7663469108,-7.09428702474,150.706166886,0.0,0.0,0.0,0,1,1,0
352501000,352500000,0.0223534050649,0.00606824994184,0.491041372195,-0.00172018905827,0.0149741465911,0.00667424094584,0.999864125965,0.206825950288,0.0202257623449,0.233316900251,0.299858776027,-0.0213636991887,0.13806060586,1.74262381549,-0.316523084467,-1.25109739394,-0.126809226433,-7.10413885745,-0.400910254811,0.351206846617,0.151781143884,0.024451909392,0.791717992746,0.0664956787732,0.871590809296,11.0365788695,0.926952286023,9.30808026146,0.33,-0.15,3.50013878405e-16,0.0,0.0,0.0,0.0,0.0,0.0,-0.33,0.15,2.63313578634e-16,0.0,0.0,0.0,0.0,0.0,0.0,-0.30162400214,-0.151519073446,0.0285205712407,0.992266769307,-0.0531197566227,0.947595919846,11.8763945513,-0.63578788249,8.00116147145,0.0,0.0,0.0,13.5938145215,0.977369770781,115.648950524,37.5168195344,-7.25784457439,152.016559915,0.0,0.0,0.0,0,1,1,0
355001000,355000000,0.0228759526671,0.00611781521108,0.491620854244,-0.00134866408078,0.0149334459856,0.00685170035376,0.999864104515,0.211226992514,0.0194224517875,0.230309396134,0.299009115294,-0.0393759944708,0.137037860863,1.77829024464,-0.326126108369,-1.1535199273,-0.555509886416,-7.30579123995,-0.417169628625,0.353220054105,0.151950231361,0.0266590328041,0.81861727666,0.0687549253216,0.893731375602,10.4828482617,0.880444952657,8.40437278367,0.33,-0.15,3.50013878405e-16,0.0,0.0,0.0,0.0,0.0,0.0,-0.33,0.15,2.63313578634e-16,0.0,0.0,0.0,0.0,0.0,0.0,-0.29910702096,-0.151653816875,0.0309134569156,1.02099838463,-0.0546578676029,0.966269518314,11.1088977045,-0.594700901675,6.93771730341,0.0,0.0,0.0,13.8324188424,0.883916427363,116.76717015,38.256866261,-7.42536829204,153.316875776,0.0,0.0,0.0,0,1,1,0
357501000,357500000,0.0234096148343,0.00616534218981,0.492193131124,-0.000979015636244,0.0148699288929,0.00702779854852,0.999864259183,0.215717802908,0.0185951280683,0.227556230476,0.297068268212,-0.0578931310229,0.135975284105,1.81443835025,-0.335733613974,-1.04762662653,-0.999760630157,-7.5080143385,-0.432797757952,0.355298779395,0.15212482162,0.0289186835461,0.844132234055,0.0708979035365,0.913612673214,9.92911765398,0.833937619291,7.50066530589,0.33,-0.15,3.50013878405e-16,0.0,0.0,0.0,0.0,0.0,0.0,-0.33,0.15,2.63313578634e-16,0.0,0.0,0.0,0.0,0.0,0.0,-0.296520609169,-0.151792277186,0.0333497033236,1.04781125783,-0.056093261131,0.982284506363,10.3414008576,-0.55361392086,5.87427313536,0.0,0.0,0.0,14.0679734281,0.781929569208,117.915818269,38.9857112552,-7.59696604435,154.60670903,0.0,0.0,0.0,0,1,1,0
360001000,360000000,0.023954617492,0.00621077083112,0.49275886467,-0.000612639704436,0.0147829730773,0.00720247392146,0.999864597208,0.220299585662,0.0177437799829,0.225078192863,0.293997341845,-0.0769165535487,0.134874282677,1.85106813233,-0.345345601282,-0.933417491644,-1.45957575523,-7.71082225231,-0.447933595435,0.35743956167,0.152304623989,0.0312252134462,0.86826286493,0.072924613418,0.931234702132,9.37538704621,0.787430285924,6.5969578281,0.33,-0.15,3.50013878405e-16,0.0,0.0,0.0,0.0,0.0,0.0,-0.33,0.15,2.63313578634e-16,0.0,0.0,0.0,0.0,0.0,0.0,-0.293869563623,-0.151934197583,0.0358226639387,1.07270538891,-0.0574259372072,0.995640883991,9.57390401077,-0.512526940045,4.81082896732,0.0,0.0,0.0,14.3002623227,0.67116151872,119.095839532,39.7025786819,-7.77274569795,155.885654239,0.0,0.0,0.0,0,1,1,0
362501000,362500000,0.0245111895764,0.00625404106008,0.493318768687,-0.000250981161617,0.0146719552735,0.0073756663482,0.999865126046,0.224973544967,0.0168683963271,0.22289607288,0.289757406655,-0.0964477402394,0.133735900113,1.88817959088,-0.354962070294,-0.810892522626,-1.93497023752,-7.9142276629,-0.462729096752,0.359638940114,0.152489347797,0.0335729743328,0.891009169286,0.0748350549661,0.946597462355,8.82165643845,0.740922952558,5.69325035031,0.33,-0.15,3.50013878405e-16,0.0,0.0,0.0,0.0,0.0,0.0,-0.33,0.15,2.63313578634e-16,0.0,0.0,0.0,0.0,0.0,0.0,-0.291158681176,-0.152079321274,0.0383256922349,1.09568077788,-0.0586558958313,1.0063386512,8.80640716391,-0.47143995923,3.74738479927,0.0,0.0,0.0,14.5290695704,0.551364598302,120.308178586,40.4066927058,-7.9528151195,157.153305964,0.0,0.0,0.0,0,1,1,0
365001000,365000000,0.0250795630341,0.00629509277377,0.493873608957,0.000104466177987,0.0145362511695,0.0075473167899,0.999865853251,0.229740885014,0.0159689658967,0.221030660112,0.284309494876,-0.116488199159,0.132560783409,1.92577272589,-0.364583021009,-0.680051719482,-2.4259596756,-8.11824177797,-0.477349598833,0.361893453911,0.152678702373,0.0359563180341,0.912371147123,0.0766292281808,0.959700953883,8.26792583068,0.694415619191,4.78954287252,0.33,-0.15,3.50013878405e-16,0.0,0.0,0.0,0.0,0.0,0.0,-0.33,0.15,2.63313578634e-16,0.0,0.0,0.0,0.0,0.0,0.0,-0.288392758685,-0.152227391464,0.040852141686,1.11673742473,-0.0597831370033,1.01437780799,8.03891031705,-0.430352978415,2.68394063123,0.0,0.0,0.0,14.7541792154,0.422291130361,121.553780083,41.0972774917,-8.13728217562,158.409258766,0.0,0.0,0.0,0,1,1,0
367501000,367500000,0.0256599728222,0.00633386584125,0.494424203235,0.000452159519151,0.0143752353918,0.00771736685813,0.999866786331,0.234602809994,0.0150454774873,0.219502744144,0.277614599032,-0.137039464492,0.131349149098,1.96384753738,-0.374208453428,-0.540895082212,-2.93256022472,-8.32287427587,-0.491974197817,0.364199642244,0.152872397048,0.0383695963783,0.93234879844,0.0783071330621,0.970545176717,7.71419522291,0.647908285825,3.88583539473,0.33,-0.15,3.50013878405e-16,0.0,0.0,0.0,0.0,0.0,0.0,-0.33,0.15,2.63313578634e-16,0.0,0.0,0.0,0.0,0.0,0.0,-0.285576593004,-0.152378151361,0.0433953657661,1.13587532947,-0.0608076607233,1.01975835436,7.27141347019,-0.3892659976,1.62049646318,0.0,0.0,0.0,14.9753753018,0.283693437298,122.833588671,41.7735572044,-8.32625473297,159.653107208,0.0,0.0,0.0,0,1,1,0
370001000,370000000,0.0262526569083,0.00637030010356,0.494971421249,0.000790507041149,0.0141882814951,0.00788575834265,0.99986793257,0.239560524098,0.0140979198948,0.218333114562,0.269633670642,-0.158103092648,0.130100748381,2.00240402533,-0.38383836755,-0.393422610815,-3.45478851967,-8.52813325038,-0.506796126715,0.366554044298,0.153070141148,0.0408071611938,0.950942123237,0.0798687696099,0.979130130857,7.16046461515,0.601400952458,2.98212791694,0.33,-0.15,3.50013878405e-16,0.0,0.0,0.0,0.0,0.0,0.0,-0.33,0.15,2.63313578634e-16,0.0,0.0,0.0,0.0,0.0,0.0,-0.282714980989,-0.15253134417,0.0459487179491,1.15309449209,-0.0617294669913,1.0224802903,6.50391662334,-0.348179016785,0.557052295136,0.0,0.0,0.0,15.1924418738,0.135323841519,124.148549001,42.4347560085,-8.51984065819,160.884445851,0.0,0.0,0.0,0,1,1,0
372501000,372500000,0.0268578562705,0.00640433537373,0.495516184704,0.00111786785184,0.0139747619545,0.00805243270057,0.999869298822,0.244615231517,0.0131262819148,0.217542560952,0.260327619132,-0.179680658234,0.128814831313,2.04144218974,-0.393472763375,-0.237634305291,-3.99266158575,-8.73402515591,-0.522023132754,0.368953199255,0.153271644005,0.0432633643087,0.968151121515,0.0813141378244,0.985455816302,6.60673400738,0.554893619092,2.07842043915,0.33,-0.15,3.50013878405e-16,0.0,0.0,0.0,0.0,0.0,0.0,-0.33,0.15,2.63313578634e-16,0.0,0.0,0.0,0.0,0.0,0.0,-0.279812719496,-0.152686713098,0.048505551709,1.16839491258,-0.0625485558073,1.02254361583,5.73641977648,-0.30709203597,-0.506391872909,0.0,0.0,0.0,15.4051629755,-0.0230653345717,125.499605722,43.0800980689,-8.71814781791,162.102869257,0.0,0.0,0.0,0,1,1,0
375001000,375000000,0.0274758148972,0.0064359114368,0.496059467276,0.00143255194049,0.0137340481625,0.00821733050628,0.999870891263,0.249768136444,0.0121305523432,0.217151872898,0.24965731098,-0.201773749886,0.127490110045,2.08096203063,-0.403111640904,-0.0735301656412,-4.54619673715,-8.94055475304,-0.537877854348,0.3713936463,0.153476614947,0.0457325575514,0.983975793274,0.0826432377054,0.989522233053,6.05300339962,0.508386285725,1.17471296137,0.33,-0.15,3.50013878405e-16,0.0,0.0,0.0,0.0,0.0,0.0,-0.33,0.15,2.63313578634e-16,0.0,0.0,0.0,0.0,0.0,0.0,-0.276874605378,-0.152844001351,0.0510592205196,1.18177659097,-0.0632649271712,1.01994833094,4.96892292962,-0.266005055155,-1.56983604095,0.0,0.0,0.0,15.6133226512,-0.191721768571,126.887703484,43.7088075504,-8.92128407878,163.307971986,0.0,0.0,0.0,0,1,1,0
377501000,377500000,0.0281067797874,0.00646496804979,0.496602294615,0.00173282012939,0.0134655104288,0.00838039086063,0.999872715105,0.255020443068,0.0111107199755,0.217181839985,0.237583569137,-0.224383965969,0.126124721125,2.12096354798,-0.412755000137,0.0988898081353,-5.11541146182,-9.14772505436,-0.554598197645,0.373871924616,0.153684763304,0.0482090927501,0.998416138513,0.083856069253,0.991329381109,5.49927279185,0.461878952359,0.271005483577,0.33,-0.15,3.50013878405e-16,0.0,0.0,0.0,0.0,0.0,0.0,-0.33,0.15,2.63313578634e-16,0.0,0.0,0.0,0.0,0.0,0.0,-0.273905435493,-0.153002952136,0.053603077855,1.19323952723,-0.063878581083,1.01469443563,4.20142608276,-0.22491807434,-2.633280209,0.0,0.0,0.0,15.8167049449,-0.370893138073,128.313786935,44.3201086176,-9.12935730745,164.499348601,0.0,0.0,0.0,0,1,1,0
380001000,380000000,0.0287510009507,0.00649144494168,0.497145744346,0.00201688402458,0.013168517985,0.00854155075869,0.999874774271,0.260373355581,0.0100667736077,0.2176532518,0.224067172747,-0.247512910138,0.124716186859,2.1614467418,-0.422402841073,0.279625616038,-5.70032329222,-9.35553727061,-0.572437712588,0.376384573387,0.153895798403,0.050687321733,1.01147215723,0.0849526324672,0.990877260471,4.94554218409,0.415371618992,-0.632701994212,0.33,-0.15,3.50013878405e-16,0.0,0.0,0.0,0.0,0.0,0.0,-0.33,0.15,2.63313578634e-16,0.0,0.0,0.0,0.0,0.0,0.0,-0.270910006694,-0.153163308659,0.056130477189,1.20278372138,-0.0643895175429,1.00678192989,3.4339292359,-0.183831093525,-3.69672437705,0.0,0.0,0.0,16.0150939009,-0.560827120676,129.778800727,44.9132254353,-9.34247537054,165.676593663,0.0,0.0,0.0,0,1,1,0
382501000,382500000,0.0294087314071,0.00651528181349,0.497690946069,0.00228290596563,0.0128424389938,0.00870074441471,0.999877071018,0.265828078174,0.00899870203542,0.218586897927,0.20906885722,-0.271162186767,0.123261375733,2.20241161209,-0.432055163712,0.468677258068,-6.30094966095,-9.56399075701,-0.591665968391,0.378928131797,0.154109429576,0.0531615963285,1.02314384943,0.085932927348,0.988165871138,4.39181157632,0.368864285626,-1.536409472,0.33,-0.15,3.50013878405e-16,0.0,0.0,0.0,0.0,0.0,0.0,-0.33,0.15,2.63313578634e-16,0.0,0.0,0.0,0.0,0.0,0.0,-0.267893115837,-0.153324814126,0.0586347719957,1.21040917341,-0.0647977365507,0.996210813741,2.66643238904,-0.14274411271,-4.76016854509,0.0,0.0,0.0,16.2073613344,-0.760802674514,131.272778373,45.4873821684,-9.56074613472,166.839301734,0.0,0.0,0.0,0,1,1,0
385001000,385000000,0.0300802271868,0.00653641833819,0.498239081356,0.00252899897498,0.0124866405624,0.00885790254337,0.99987960552,0.271385815038,0.0079064940544,0.220003567952,0.192549314671,-0.295333396242,0.121756461896,2.24385815885,-0.441711968055,0.666044734224,-6.91730774054,-9.77308295981,-0.612568928348,0.381499139029,0.15432536615,0.0556262683648,1.03343121511,0.0867969538953,0.983195213111,3.83808096855,0.322356952259,-2.44011694979,0.33,-0.15,3.50013878405e-16,0.0,0.0,0.0,0.0,0.0,0.0,-0.33,0.15,2.63313578634e-16,0.0,0.0,0.0,0.0,0.0,0.0,-0.264859559779,-0.153487211744,0.0611093157491,1.21611588333,-0.0651032381064,0.982981087168,1.89893554218,-0.101657131896,-5.82361271314,0.0,0.0,0.0,16.378506268,-0.955110153383,132.618144966,46.0418029816,-9.78427746661,167.987067376,0.0,0.0,0.0,0,1,1,0
387501000,387500000,0.030765747331,0.00655479416075,0.498791383753,0.00275322670685,0.0121004887614,0.00901295159621,0.999882375391,0.277047770365,0.0067901384604,0.22192405146,0.174469194794,-0.320028130122,0.120196883705,2.28578638207,-0.451373254101,0.871728044507,-7.54941426652,-9.982809363,-0.635449323841,0.384094134267,0.154543317455,0.0580756896701,1.04233425428,0.0875447121093,0.975965286389,3.28435036079,0.275849618893,-3.34382442758,0.33,-0.15,3.50013878405e-16,0.0,0.0,0.0,0.0,0.0,0.0,-0.33,0.15,2.63313578634e-16,0.0,0.0,0.0,0.0,0.0,0.0,-0.261814135373,-0.153650244719,0.0635474619229,1.21990385112,-0.0653060222101,0.967092750176,1.13143869533,-0.0605701510806,-6.88705688118,0.0,0.0,0.0,16.5237833876,-1.13834287444,133.756154817,46.5757120395,-10.0131772329,169.119485149,0.0,0.0,0.0,0,1,1,0
390001000,390000000,0.0314655538909,0.00657034889814,0.499349138782,0.00295360339629,0.0116833486491,0.00916581295215,0.999885375163,0.282815148345,0.00564962404914,0.224369138037,0.15478910619,-0.345247966172,0.11857730134,2.32819628177,-0.461039021851,1.08572718892,-8.19728534281,-10.1931634352,-0.660627027433,0.386709656695,0.15476299282,0.0605042120728,1.04985296692,0.0881762019898,0.966476090973,2.73061975302,0.229342285526,-4.24753190537,0.33,-0.15,3.50013878405e-16,0.0,0.0,0.0,0.0,0.0,0.0,-0.33,0.15,2.63313578634e-16,0.0,0.0,0.0,0.0,0.0,0.0,-0.258761639475,-0.153813656257,0.0659425639912,1.2217730768,-0.0654060888618,0.948545802763,0.363941848467,-0.0194831702657,-7.95050104923,0.0,0.0,0.0,16.6438258218,-1.31072893015,134.691892513,47.0883335071,-10.2475533001,170.236149616,0.0,0.0,0.0,0,1,1,0
392501000,392500000,0.0321799119284,0.00658302213931,0.499913683937,0.00312809380844,0.0112345843021,0.00931640206108,0.999888595693,0.288689153171,0.00448493961639,0.227359617267,0.133469618209,-0.370994463249,0.116891553486,2.37108785793,-0.470709271304,1.30804216745,-8.86093622875,-10.4041365767,-0.688439424872,0.389342245496,0.154984101574,0.0629061874011,1.05598735304,0.0886914235369,0.954727626862,2.17688914526,0.18283495216,-5.15123938316,0.33,-0.15,3.50013878405e-16,0.0,0.0,0.0,0.0,0.0,0.0,-0.33,0.15,2.63313578634e-16,0.0,0.0,0.0,0.0,0.0,0.0,-0.25570686894,-0.153977189565,0.068287975428,1.22172356037,-0.0654034380615,0.927340244929,-0.403554998391,0.0216038105492,-9.01394521727,0.0,0.0,0.0,16.7392666989,-1.47249641296,135.430442639,47.578891549,-10.487513535,171.336655338,0.0,0.0,0.0,0,1,1,0
395001000,395000000,0.0329090895159,0.0065927534452,0.500486408687,0.0032746131887,0.010753558852,0.0094646275394,0.999892023524,0.294670989032,0.00329607395787,0.230916278736,0.110471263349,-0.397269156073,0.115132613086,2.41446111055,-0.48038400246,1.53867298011,-9.54038110659,-10.6157180665,-0.71924178584,0.391988439855,0.155206353047,0.0652759674832,1.06073741265,0.0890903767506,0.940719894057,1.62315853749,0.136327618793,-6.05494686094,0.33,-0.15,3.50013878405e-16,0.0,0.0,0.0,0.0,0.0,0.0,-0.33,0.15,2.63313578634e-16,0.0,0.0,0.0,0.0,0.0,0.0,-0.252654620625,-0.154140587849,0.0705770497072,1.21975530181,-0.0652980698091,0.903476076676,-1.17105184525,0.0626907913642,-10.0773893853,0.0,0.0,0.0,16.8107391475,-1.62387341534,135.976889782,48.0466103301,-10.7331658042,172.420596877,0.0,0.0,0.0,0,1,1,0
