%time,field.time_from_start,field.base.pose.position.x,field.base.pose.position.y,field.base.pose.position.z,field.base.pose.orientation.x,field.base.pose.orientation.y,field.base.pose.orientation.z,field.base.pose.orientation.w,field.base.twist.linear.x,field.base.twist.linear.y,field.base.twist.linear.z,field.base.twist.angular.x,field.base.twist.angular.y,field.base.twist.angular.z,field.base.accel.linear.x,field.base.accel.linear.y,field.base.accel.linear.z,field.base.accel.angular.x,field.base.accel.angular.y,field.base.accel.angular.z,field.ee_motion0.pos.x,field.ee_motion0.pos.y,field.ee_motion0.pos.z,field.ee_motion0.vel.x,field.ee_motion0.vel.y,field.ee_motion0.vel.z,field.ee_motion0.acc.x,field.ee_motion0.acc.y,field.ee_motion0.acc.z,field.ee_motion1.pos.x,field.ee_motion1.pos.y,field.ee_motion1.pos.z,field.ee_motion1.vel.x,field.ee_motion1.vel.y,field.ee_motion1.vel.z,field.ee_motion1.acc.x,field.ee_motion1.acc.y,field.ee_motion1.acc.z,field.ee_motion2.pos.x,field.ee_motion2.pos.y,field.ee_motion2.pos.z,field.ee_motion2.vel.x,field.ee_motion2.vel.y,field.ee_motion2.vel.z,field.ee_motion2.acc.x,field.ee_motion2.acc.y,field.ee_motion2.acc.z,field.ee_motion3.pos.x,field.ee_motion3.pos.y,field.ee_motion3.pos.z,field.ee_motion3.vel.x,field.ee_motion3.vel.y,field.ee_motion3.vel.z,field.ee_motion3.acc.x,field.ee_motion3.acc.y,field.ee_motion3.acc.z,field.ee_forces0.x,field.ee_forces0.y,field.ee_forces0.z,field.ee_forces1.x,field.ee_forces1.y,field.ee_forces1.z,field.ee_forces2.x,field.ee_forces2.y,field.ee_forces2.z,field.ee_forces3.x,field.ee_forces3.y,field.ee_forces3.z,field.ee_contact0,field.ee_contact1,field.ee_contact2,field.ee_contact3
1000,0,-1.39040843201e-09,-1.12619182409e-08,0.47000000049,6.79559312282e-12,2.31150321577e-13,5.07933656683e-11,1.0,-2.03639585603e-10,-3.07632991179e-09,1.89264362805e-10,3.86898703615e-12,-3.08963085474e-12,3.0319130536e-11,1.55539791676e-11,-7.452793594e-11,1.70221239231e-11,-6.213016204e-12,1.59157058722e-12,1.48404917889e-12,0.33,0.15,-1.08191067621e-10,0.0,0.0,0.0,0.0,0.0,0.0,0.33,-0.15,8.79292523218e-12,0.0,0.0,0.0,0.0,0.0,0.0,-0.33,0.15,5.60163493609e-11,0.0,0.0,0.0,0.0,0.0,0.0,-0.33,-0.15,-1.77726255173e-10,0.0,0.0,0.0,0.0,0.0,0.0,-1.69414737308,2.28730397463,77.2320606328,-0.187594785056,-2.65039216222,51.6763530737,0.895353362283,-0.214511777613,51.6763439399,0.986388796901,0.577599963935,77.2320708543,1,1,1,1
2501000,2500000,8.9859073441e-10,-1.33255738922e-08,0.469999955289,-1.51932220907e-08,-1.82251923794e-08,2.67868073596e-08,1.0,2.79870522593e-06,-2.43485792265e-06,-5.40710460286e-05,-3.63869444434e-05,-4.34773720552e-05,6.4003318057e-05,0.00232152542327,-0.00188882343031,-0.0429835384747,-0.0289605885712,-0.0343600747565,0.0509417418496,0.33,0.15,-1.08191067621e-10,0.0,0.0,0.0,0.0,0.0,0.0,0.33,-0.15,8.79292523218e-12,0.0,0.0,0.0,0.0,0.0,0.0,-0.33,0.15,5.60163493609e-11,0.0,0.0,0.0,0.0,0.0,0.0,-0.33,-0.15,-1.77726255173e-10,0.0,0.0,0.0,0.0,0.0,0.0,-1.67685297181,2.29233335427,77.1940197081,-0.182919019984,-2.6477156033,51.4292823964,0.900606741672,-0.210075516312,51.4952892299,0.982855352404,0.577971199488,77.2301077427,1,1,1,1
5001000,5000000,1.79546186287e-08,-2.70174954536e-08,0.469999642295,-1.20662302663e-07,-1.43166764172e-07,2.12308120588e-07,1.0,1.20194152088e-05,-9.16418463473e-06,-0.000213550254225,-0.000144058053489,-0.000169691304947,0.000253404277693,0.0051374409094,-0.00343803617001,-0.0843263783061,-0.057027311403,-0.0661892660427,0.100318127623,0.33,0.15,-1.08191067621e-10,0.0,0.0,0.0,0.0,0.0,0.0,0.33,-0.15,8.79292523218e-12,0.0,0.0,0.0,0.0,0.0,0.0,-0.33,0.15,5.60163493609e-11,0.0,0.0,0.0,0.0,0.0,0.0,-0.33,-0.15,-1.77726255173e-10,0.0,0.0,0.0,0.0,0.0,0.0,-1.62680488424,2.31117100853,77.1316739151,-0.177995904293,-2.64384449236,51.1922103053,0.904038006978,-0.20965107663,51.3223812967,0.972752378159,0.577935290156,77.2464295081,1,1,1,1
7501000,7500000,6.73771470393e-08,-6.20202625484e-08,0.469998803116,-4.04108915271e-07,-4.74290741029e-07,7.10915917099e-07,1.0,2.88979015049e-05,-1.93420299259e-05,-0.000474335688676,-0.000320778493384,-0.000372314739122,0.00056428942327,0.00844774647395,-0.00464763829362,-0.124028519477,-0.0842000220871,-0.09548770407,0.14812907243,0.33,0.15,-1.08191067621e-10,0.0,0.0,0.0,0.0,0.0,0.0,0.33,-0.15,8.79292523218e-12,0.0,0.0,0.0,0.0,0.0,0.0,-0.33,0.15,5.60163493609e-11,0.0,0.0,0.0,0.0,0.0,0.0,-0.33,-0.15,-1.77726255173e-10,0.0,0.0,0.0,0.0,0.0,0.0,-1.54512447996,2.34334294789,77.0458988211,-0.172836810337,-2.6387963944,50.9649935552,0.905684057149,-0.213134647832,51.1575056635,0.956410175406,0.577497579782,77.2801865637,1,1,1,1
10001000,10000000,1.69855585745e-07,-1.25893888449e-07,0.469997189613,-9.50447715759e-07,-1.1031547955e-06,1.67201936976e-06,0.999999999998,5.46701393105e-05,-3.21193672561e-05,-0.000832325602728,-0.000564312971744,-0.000645021033871,0.000992744998732,0.0122524421169,-0.00551762980114,-0.162089961988,-0.110478500344,-0.122255594592,0.194374446743,0.33,0.15,-1.08191067621e-10,0.0,0.0,0.0,0.0,0.0,0.0,0.33,-0.15,8.79292523218e-12,0.0,0.0,0.0,0.0,0.0,0.0,-0.33,0.15,5.60163493609e-11,0.0,0.0,0.0,0.0,0.0,0.0,-0.33,-0.15,-1.77726255173e-10,0.0,0.0,0.0,0.0,0.0,0.0,-1.4329331286,2.3883751828,76.9375699932,-0.16745311047,-2.63258887444,50.7474889007,0.905581791129,-0.220422419185,51.0005478535,0.934159045383,0.576663412207,77.3305293229,1,1,1,1
12501000,12500000,3.49169282513e-07,-2.24075820078e-07,0.469994563902,-1.84179885113e-06,-2.11340865648e-06,3.24013524497e-06,0.999999999991,9.05721038216e-05,-4.66471700849e-05,-0.00128341824973,-0.000872425573474,-0.000981484147541,0.00153485687859,0.0165515278383,-0.00604801069258,-0.198510705839,-0.135862471451,-0.146493209571,0.239054086124,0.33,0.15,-1.08191067621e-10,0.0,0.0,0.0,0.0,0.0,0.0,0.33,-0.15,8.79292523218e-12,0.0,0.0,0.0,0.0,0.0,0.0,-0.33,0.15,5.60163493609e-11,0.0,0.0,0.0,0.0,0.0,0.0,-0.33,-0.15,-1.77726255173e-10,0.0,0.0,0.0,0.0,0.0,0.0,-1.29135219974,2.44579372374,76.8075629988,-0.161856177045,-2.6252394975,50.5395530965,0.903768107864,-0.231410579955,50.8513933897,0.906329289331,0.575438131276,77.396608199,1,1,1,1
15001000,15000000,6.32187523104e-07,-3.59880938006e-07,0.469990698354,-3.15748708262e-06,-3.58079495676e-06,5.55488740428e-06,0.999999999973,0.000137839770234,-6.20764118722e-05,-0.00182351188304,-0.00124287964803,-0.00137537879171,0.00218671049227,0.0213450036381,-0.00623878096793,-0.23329075103,-0.160351624797,-0.168200878151,0.282167800442,0.33,0.15,-1.08191067621e-10,0.0,0.0,0.0,0.0,0.0,0.0,0.33,-0.15,8.79292523218e-12,0.0,0.0,0.0,0.0,0.0,0.0,-0.33,0.15,5.60163493609e-11,0.0,0.0,0.0,0.0,0.0,0.0,-0.33,-0.15,-1.77726255173e-10,0.0,0.0,0.0,0.0,0.0,0.0,-1.121503063,2.51512458115,76.656753405,-0.156057382417,-2.61676582859,50.3410428973,0.900279906299,-0.245995319408,50.7099277953,0.873251208488,0.57382708083,77.4775736054,1,1,1,1
17501000,17500000,1.04886953127e-06,-5.34501556454e-07,0.469985375594,-4.97404078176e-06,-5.57315025949e-06,8.751006234e-06,0.999999999934,0.000197709113744,-7.75580660778e-05,-0.002448504756,-0.00167343774201,-0.00182038056319,0.00294439077091,0.0266328695164,-0.00608994062719,-0.26643009756,-0.183945631563,-0.187378977934,0.323715382612,0.33,0.15,-1.08191067621e-10,0.0,0.0,0.0,0.0,0.0,0.0,0.33,-0.15,8.79292523218e-12,0.0,0.0,0.0,0.0,0.0,0.0,-0.33,0.15,5.60163493609e-11,0.0,0.0,0.0,0.0,0.0,0.0,-0.33,-0.15,-1.77726255173e-10,0.0,0.0,0.0,0.0,0.0,0.0,-0.92450708798,2.5958937655,76.4860167791,-0.150068098938,-2.60718543273,50.1518150577,0.895154085381,-0.264072826808,50.5760365934,0.835255104094,0.571835604713,77.5725759554,1,1,1,1
20001000,20000000,1.63226446874e-06,-7.47007423293e-07,0.469978388499,-7.36519085094e-06,-8.15040623605e-06,1.2958328032e-05,0.999999999856,0.000271416109548,-9.22431061614e-05,-0.00315429512196,-0.00216186157478,-0.00231016605454,0.00380398211539,0.032415125473,-0.00560148967036,-0.29792874543,-0.206644161541,-0.204027926565,0.363696616829,0.33,0.15,-1.08191067621e-10,0.0,0.0,0.0,0.0,0.0,0.0,0.33,-0.15,8.79292523218e-12,0.0,0.0,0.0,0.0,0.0,0.0,-0.33,0.15,5.60163493609e-11,0.0,0.0,0.0,0.0,0.0,0.0,-0.33,-0.15,-1.77726255173e-10,0.0,0.0,0.0,0.0,0.0,0.0,-0.701485644281,2.68762728727,76.2962286882,-0.143899698962,-2.59651587494,49.9717263325,0.888427544053,-0.285539291424,50.4496053072,0.792671277389,0.569469046768,77.6807656624,1,1,1,1
22501000,22500000,2.41851143525e-06,-9.94345720043e-07,0.469969540205,-1.04018696174e-05,-1.13645909694e-05,1.83017943792e-05,0.999999999714,0.000360196732841,-0.000105282505583,-0.00393678123426,-0.00270591205519,-0.00283841294403,0.00476156838427,0.0386917715081,-0.00477342809745,-0.32778669464,-0.228446899078,-0.218148173615,0.402111286307,0.33,0.15,-1.08191067621e-10,0.0,0.0,0.0,0.0,0.0,0.0,0.33,-0.15,8.79292523218e-12,0.0,0.0,0.0,0.0,0.0,0.0,-0.33,0.15,5.60163493609e-11,0.0,0.0,0.0,0.0,0.0,0.0,-0.33,-0.15,-1.77726255173e-10,0.0,0.0,0.0,0.0,0.0,0.0,-0.453560101508,2.7898511569,76.0882646997,-0.137563554843,-2.58477472022,49.8006334764,0.880137181263,-0.310290902519,50.3305194596,0.745830029611,0.566732750836,77.8012931397,1,1,1,1
25001000,24999999,3.44683946852e-06,-1.27134106187e-06,0.469958644098,-1.4152209747e-05,-1.52598303569e-05,2.49014515233e-05,0.999999999473,0.000465286958821,-0.000115827237802,-0.00479186134627,-0.0033033493369,-0.00339880006557,0.00581323290052,0.0454628076216,-0.00360575590845,-0.356003945189,-0.249353558154,-0.229740192773,0.438959180527,0.33,0.15,-1.08191067621e-10,0.0,0.0,0.0,0.0,0.0,0.0,0.33,-0.15,8.79292523218e-12,0.0,0.0,0.0,0.0,0.0,0.0,-0.33,0.15,5.60163493609e-11,0.0,0.0,0.0,0.0,0.0,0.0,-0.33,-0.15,-1.77726255173e-10,0.0,0.0,0.0,0.0,0.0,0.0,-0.181851829266,2.90209138488,75.8630003808,-0.131071038934,-2.5719795336,49.6383932439,0.870319895955,-0.338223849361,50.218664574,0.695061662,0.563632060761,77.9333088007,1,1,1,1
27501000,27499999,4.75956754425e-06,-1.5706954976e-06,0.469945523821,-1.86815432206e-05,-1.98723495895e-05,3.28724497968e-05,0.999999999088,0.000587922762681,-0.000123028276278,-0.00571543371133,-0.0039519329105,-0.00398500745964,0.00695505847574,0.0527282338135,-0.00209847310337,-0.382580497079,-0.269363896588,-0.238804474349,0.474240101991,0.33,0.15,-1.08191067621e-10,0.0,0.0,0.0,0.0,0.0,0.0,0.33,-0.15,8.79292523218e-12,0.0,0.0,0.0,0.0,0.0,0.0,-0.33,0.15,5.60163493609e-11,0.0,0.0,0.0,0.0,0.0,0.0,-0.33,-0.15,-1.77726255173e-10,0.0,0.0,0.0,0.0,0.0,0.0,0.11251780284,3.02387398164,75.6213112986,-0.12443352359,-2.55814788009,49.4848623898,0.859012587074,-0.369234321215,50.1139261734,0.640696475795,0.560172320386,78.0759630587,1,1,1,1
30001000,29999999,6.40210457615e-06,-1.8829885097e-06,0.469930013271,-2.40524004149e-05,-2.52304746817e-05,4.23250430957e-05,0.999999998497,0.00072934011962,-0.000126036594472,-0.00670339658278,-0.00464942172987,-0.00459071640571,0.00818312745063,0.0604880500839,-0.000251579682194,-0.407516350308,-0.288477729381,-0.245341518078,0.507953872477,0.33,0.15,-1.08191067621e-10,0.0,0.0,0.0,0.0,0.0,0.0,0.33,-0.15,8.79292523218e-12,0.0,0.0,0.0,0.0,0.0,0.0,-0.33,0.15,5.60163493609e-11,0.0,0.0,0.0,0.0,0.0,0.0,-0.33,-0.15,-1.77726255173e-10,0.0,0.0,0.0,0.0,0.0,0.0,0.428427425209,3.15472495768,75.3640730203,-0.117662381163,-2.5432973247,49.3398976688,0.846252153567,-0.403218507347,50.0161897809,0.583064772236,0.556358873553,78.228406327,1,1,1,1
32501000,32499999,8.42294941591e-06,-2.19667701427e-06,0.469911956598,-3.03245093243e-05,-3.13546340327e-05,5.33645884378e-05,0.999999997625,0.000890775004833,-0.000124003165843,-0.00775164821398,-0.00539357437099,-0.00520960943717,0.00949352175048,0.0687422564326,0.00193492435507,-0.430811504877,-0.306694941193,-0.249351826233,0.540100338799,0.33,0.15,-1.08191067621e-10,0.0,0.0,0.0,0.0,0.0,0.0,0.33,-0.15,8.79292523218e-12,0.0,0.0,0.0,0.0,0.0,0.0,-0.33,0.15,5.60163493609e-11,0.0,0.0,0.0,0.0,0.0,0.0,-0.33,-0.15,-1.77726255173e-10,0.0,0.0,0.0,0.0,0.0,0.0,0.764755668234,3.29417032343,75.0921611133,-0.110768984007,-2.52744543245,49.2033558355,0.832075494379,-0.440072597023,49.9253409197,0.522496852562,0.552197064105,78.389789019,1,1,1,1
35001000,35000000,1.08736908532e-05,-2.49809536111e-06,0.469891208207,-3.75547949608e-05,-3.8257359994e-05,6.60915456223e-05,0.999999996379,0.00107346339352,-0.00011607896385,-0.00885608685828,-0.00618214922072,-0.00583537033938,0.0108823229544,0.0774908528598,0.00446103900841,-0.452465960785,-0.324015497942,-0.250835897046,0.570679378079,0.33,0.15,-1.08191067621e-10,0.0,0.0,0.0,0.0,0.0,0.0,0.33,-0.15,8.79292523218e-12,0.0,0.0,0.0,0.0,0.0,0.0,-0.33,0.15,5.60163493609e-11,0.0,0.0,0.0,0.0,0.0,0.0,-0.33,-0.15,-1.77726255173e-10,0.0,0.0,0.0,0.0,0.0,0.0,1.12038116231,3.44173608938,74.8064511448,-0.103764704476,-2.51060976836,49.0750936446,0.816519508454,-0.479692779509,49.8412651128,0.459323018012,0.547692235884,78.559261548,1,1,1,1
37501000,37500000,1.38090076157e-05,-2.7714553336e-06,0.469867632759,-4.5797378963e-05,-4.5943290426e-05,8.0601477008e-05,0.999999994648,0.00127864126086,-0.000101414961954,-0.010012610769,-0.00701290469359,-0.00646168413167,0.0123456123774,0.0867338393654,0.00732676427785,-0.472479718034,-0.340439457553,-0.249794218445,0.599690902514,0.33,0.15,-1.08191067621e-10,0.0,0.0,0.0,0.0,0.0,0.0,0.33,-0.15,8.79292523218e-12,0.0,0.0,0.0,0.0,0.0,0.0,-0.33,0.15,5.60163493609e-11,0.0,0.0,0.0,0.0,0.0,0.0,-0.33,-0.15,-1.77726255173e-10,0.0,0.0,0.0,0.0,0.0,0.0,1.49418253784,3.59694826598,74.5078186819,-0.0966609149241,-2.49280789743,48.9549678509,0.79962109474,-0.52197524407,49.7638478835,0.393873569826,0.542849732735,78.7359743275,1,1,1,1
40001000,40000000,1.72866683691e-05,-2.99884614884e-06,0.469841105167,-5.51035794452e-05,-5.44091702213e-05,9.6985047428e-05,0.999999992299,0.00150754458207,-7.9162133614e-05,-0.0112171181996,-0.00788359947429,-0.00708223703409,0.0138794711631,0.0964712159494,0.0105321001634,-0.490852776622,-0.355966979829,-0.246227262092,0.627134863659,0.33,0.15,-1.08191067621e-10,0.0,0.0,0.0,0.0,0.0,0.0,0.33,-0.15,8.79292523218e-12,0.0,0.0,0.0,0.0,0.0,0.0,-0.33,0.15,5.60163493609e-11,0.0,0.0,0.0,0.0,0.0,0.0,-0.33,-0.15,-1.77726255173e-10,0.0,0.0,0.0,0.0,0.0,0.0,1.88503842521,3.75933286369,74.1971392919,-0.089468987704,-2.4740573847,48.8428352089,0.78141715218,-0.566816179974,49.6929747548,0.326478809244,0.537674898498,78.9190777706,1,1,1,1
42501000,42500000,2.1367531717e-05,-3.16023445752e-06,0.4698115106,-6.55219111128e-05,-6.36438527782e-05,0.000115328024256,0.999999989178,0.00176140933234,-4.84714522903e-05,-0.0124655074032,-0.00879199278389,-0.00769071641956,0.0154799803872,0.106702982612,0.014077046665,-0.50758513655,-0.370598335464,-0.240135477743,0.653011256204,0.33,0.15,-1.08191067621e-10,0.0,0.0,0.0,0.0,0.0,0.0,0.33,-0.15,8.79292523218e-12,0.0,0.0,0.0,0.0,0.0,0.0,-0.33,0.15,5.60163493609e-11,0.0,0.0,0.0,0.0,0.0,0.0,-0.33,-0.15,-1.77726255173e-10,0.0,0.0,0.0,0.0,0.0,0.0,2.29182745482,3.92841589298,73.875288542,-0.0822002951696,-2.45437579517,48.7385524734,0.761944579722,-0.614111776485,49.6285312499,0.257469037504,0.532173077018,79.1077222908,1,1,1,1
45001000,45000000,2.6115546201e-05,-3.23346434402e-06,0.46977874448,-7.70980856699e-05,-7.36283014054e-05,0.000135711277637,0.999999985109,0.00204147148687,-8.49389144238e-06,-0.0137536766334,-0.00973584466734,-0.00828081075246,0.0171432211698,0.117429139353,0.0179616037827,-0.522676797817,-0.38433391419,-0.231519287909,0.677320121266,0.33,0.15,-1.08191067621e-10,0.0,0.0,0.0,0.0,0.0,0.0,0.33,-0.15,8.79292523218e-12,0.0,0.0,0.0,0.0,0.0,0.0,-0.33,0.15,5.60163493609e-11,0.0,0.0,0.0,0.0,0.0,0.0,-0.33,-0.15,-1.77726255173e-10,0.0,0.0,0.0,0.0,0.0,0.0,2.71342825707,4.10372336431,73.5431419995,-0.0748662096745,-2.43378069385,48.641976399,0.741240276309,-0.66375822287,49.5704028918,0.187174555845,0.526349612137,79.3010583014,1,1,1,1
47501000,47500000,3.15977503008e-05,-3.19425732635e-06,0.469742712485,-8.98750125396e-05,-8.4335590642e-05,0.000158210780899,0.99999997989,0.00234896702084,4.16195754698e-05,-0.0150775241435,-0.0107129163004,-0.00884620951411,0.0188652747945,0.128649686172,0.0221857715165,-0.536127760425,-0.397174232057,-0.220379082839,0.700061549182,0.33,0.15,-1.08191067621e-10,0.0,0.0,0.0,0.0,0.0,0.0,0.33,-0.15,8.79292523218e-12,0.0,0.0,0.0,0.0,0.0,0.0,-0.33,0.15,5.60163493609e-11,0.0,0.0,0.0,0.0,0.0,0.0,-0.33,-0.15,-1.77726255173e-10,0.0,0.0,0.0,0.0,0.0,0.0,3.14871946236,4.28478128815,73.2015752316,-0.0674781035723,-2.41228964576,48.5529637404,0.719341140888,-0.715651708394,49.5184752038,0.115925665508,0.520209847697,79.4982362158,1,1,1,1
50001000,50000000,3.78842724341e-05,-3.01621235617e-06,0.469703330546,-0.000103892799916,-9.57309074763e-05,0.000182897611147,0.999999973295,0.00268513190946,0.000102717974987,-0.0164329481867,-0.0117209703137,-0.00938060311618,0.0206422228348,0.14036462307,0.0267495498663,-0.547938024372,-0.409119937859,-0.206715215816,0.721235681803,0.33,0.15,-1.08191067621e-10,0.0,0.0,0.0,0.0,0.0,0.0,0.33,-0.15,8.79292523218e-12,0.0,0.0,0.0,0.0,0.0,0.0,-0.33,0.15,5.60163493609e-11,0.0,0.0,0.0,0.0,0.0,0.0,-0.33,-0.15,-1.77726255173e-10,0.0,0.0,0.0,0.0,0.0,0.0,3.59657970107,4.47111567496,72.8514638054,-0.0600473492167,-2.38992021593,48.4713712523,0.696284072404,-0.769688422324,49.4726337089,0.0440526677317,0.513759127542,79.6984064472,1,1,1,1
52501000,52500000,4.50483309563e-05,-2.67080581879e-06,0.469660524848,-0.000119188756168,-0.00010777155245,0.000209837950062,0.999999965074,0.00305120212792,0.000175650333648,-0.0178158470164,-0.0127577711316,-0.00987768280276,0.0224701472852,0.152573950046,0.0316529388323,-0.558107589659,-0.420171818686,-0.19052799876,0.740842714302,0.33,0.15,-1.08191067621e-10,0.0,0.0,0.0,0.0,0.0,0.0,0.33,-0.15,8.79292523218e-12,0.0,0.0,0.0,0.0,0.0,0.0,-0.33,0.15,5.60163493609e-11,0.0,0.0,0.0,0.0,0.0,0.0,-0.33,-0.15,-1.77726255173e-10,0.0,0.0,0.0,0.0,0.0,0.0,4.0558876036,4.6622525352,72.4936832883,-0.0525853189612,-2.36668996935,48.3970556894,0.672105969802,-0.825764553925,49.4327639303,-0.0281141362449,0.507002795514,79.9007194091,1,1,1,1
55001000,55000000,5.31662341612e-05,-2.12739153319e-06,0.469614231833,-0.000135797391599,-0.000120406940631,0.000239093084901,0.999999954948,0.00344841365142,0.000261265677995,-0.0192221188861,-0.013821085324,-0.0103311405417,0.0243451306962,0.1652776671,0.0368959384143,-0.566636456286,-0.43033080462,-0.171817698157,0.75888289648,0.33,0.15,-1.08191067621e-10,0.0,0.0,0.0,0.0,0.0,0.0,0.33,-0.15,8.79292523218e-12,0.0,0.0,0.0,0.0,0.0,0.0,-0.33,0.15,5.60163493609e-11,0.0,0.0,0.0,0.0,0.0,0.0,-0.33,-0.15,-1.77726255173e-10,0.0,0.0,0.0,0.0,0.0,0.0,4.52552180036,4.85771787934,72.1291092474,-0.0451033851596,-2.34261647106,48.3298738063,0.646843732028,-0.883776292464,49.3987513911,-0.100244445182,0.499946195455,80.1043255148,1,1,1,1
57501000,57500000,6.23173802803e-05,-1.35320075197e-06,0.469564398194,-0.000153750420586,-0.000133578602448,0.000270719409708,0.999999942614,0.00387800245515,0.000360413034566,-0.020647662049,-0.0149086819689,-0.0107346689065,0.0262632563119,0.178475774233,0.0424785486124,-0.573524624252,-0.43959797257,-0.150584531293,0.775356533579,0.33,0.15,-1.08191067621e-10,0.0,0.0,0.0,0.0,0.0,0.0,0.33,-0.15,8.79292523218e-12,0.0,0.0,0.0,0.0,0.0,0.0,-0.33,0.15,5.60163493609e-11,0.0,0.0,0.0,0.0,0.0,0.0,-0.33,-0.15,-1.77726255173e-10,0.0,0.0,0.0,0.0,0.0,0.0,5.00436092173,5.05703771784,71.7586172499,-0.0376129201652,-2.31771728605,48.2696823578,0.620534258028,-0.943619827205,49.3704816144,-0.172007957841,0.49259467121,80.3083751776,1,1,1,1
60001000,60000000,7.25842574832e-05,-3.13342161385e-07,0.469510980881,-0.0001730767641,-0.000147220184369,0.000304768426747,0.999999927743,0.00434120451432,0.000473941429904,-0.0220883747585,-0.0160183330232,-0.0110819609484,0.0282206082092,0.192168271445,0.0484007694267,-0.578772093559,-0.447974549239,-0.126828662813,0.790263986603,0.33,0.15,-1.08191067621e-10,0.0,0.0,0.0,0.0,0.0,0.0,0.33,-0.15,8.79292523218e-12,0.0,0.0,0.0,0.0,0.0,0.0,-0.33,0.15,5.60163493609e-11,0.0,0.0,0.0,0.0,0.0,0.0,-0.33,-0.15,-1.77726255173e-10,0.0,0.0,0.0,0.0,0.0,0.0,5.49128359812,5.25973806116,71.3830828632,-0.0301252963319,-2.29200997936,48.2163380985,0.593214446747,-1.00519134742,49.3478401234,-0.243074372981,0.48495356662,80.5120188109,1,1,1,1
62501000,62500000,8.40524438774e-05,1.02919811864e-06,0.469453947097,-0.000193802552611,-0.000161257449413,0.000341286748147,0.99999990998,0.00483925580411,0.000602699890547,-0.0235401552679,-0.0171478137003,-0.0113667100615,0.0302132714371,0.206355158735,0.054662600857,-0.582378864205,-0.455461913234,-0.100550201585,0.803605672141,0.33,0.15,-1.08191067621e-10,0.0,0.0,0.0,0.0,0.0,0.0,0.33,-0.15,8.79292523218e-12,0.0,0.0,0.0,0.0,0.0,0.0,-0.33,0.15,5.60163493609e-11,0.0,0.0,0.0,0.0,0.0,0.0,-0.33,-0.15,-1.77726255173e-10,0.0,0.0,0.0,0.0,0.0,0.0,5.98516845991,5.46534491976,71.0033816544,-0.0226518860132,-2.26551211599,48.1696977831,0.56492119713,-1.06838704236,49.3307124411,-0.313113389365,0.477028225527,80.714406828,1,1,1,1
65001000,65000000,9.68106075086e-05,2.71355653455e-06,0.4693932743,-0.000215951129383,-0.000175608277491,0.000380316097775,0.999999888943,0.00537339229972,0.000747537443035,-0.0249989018306,-0.018294902851,-0.0115826098393,0.032237332155,0.221036436103,0.0612640429034,-0.584344936191,-0.462061596312,-0.0717491978928,0.815382061694,0.33,0.15,-1.08191067621e-10,0.0,0.0,0.0,0.0,0.0,0.0,0.33,-0.15,8.79292523218e-12,0.0,0.0,0.0,0.0,0.0,0.0,-0.33,0.15,5.60163493609e-11,0.0,0.0,0.0,0.0,0.0,0.0,-0.33,-0.15,-1.77726255173e-10,0.0,0.0,0.0,0.0,0.0,0.0,6.48489413751,5.67338430412,70.6203891908,-0.0152040615627,-2.23824126096,48.1296181662,0.535691408124,-1.13310310131,49.3189840907,-0.381794705751,0.468823991776,80.9146896423,1,1,1,1
67501000,67500000,0.00011095050636,4.78099209914e-06,0.469328950201,-0.000239543054159,-0.000190182665565,0.000421893313324,0.999999864228,0.00594484997636,0.00090930311391,-0.0264605127,-0.0194573833479,-0.011723353925,0.0342888777685,0.236212103549,0.0682050955658,-0.584670309516,-0.467775283762,-0.0404256409292,0.825593680511,0.33,0.15,-1.08191067621e-10,0.0,0.0,0.0,0.0,0.0,0.0,0.33,-0.15,8.79292523218e-12,0.0,0.0,0.0,0.0,0.0,0.0,-0.33,0.15,5.60163493609e-11,0.0,0.0,0.0,0.0,0.0,0.0,-0.33,-0.15,-1.77726255173e-10,0.0,0.0,0.0,0.0,0.0,0.0,6.98933926131,5.88338222469,70.2349810395,-0.00779319533407,-2.21021497929,48.0959560026,0.505561978672,-1.19923571352,49.3125405954,-0.448788020901,0.460346209209,81.1120176671,1,1,1,1
70001000,70000000,0.000126566988354,7.27488639154e-06,0.469260972768,-0.000264596107244,-0.000204882727608,0.000466050348626,0.999999835405,0.0065548648092,0.00108884592971,-0.0279208861293,-0.0206330424679,-0.0117826358563,0.0363639970617,0.251882161075,0.0754857588444,-0.583354984181,-0.472604813928,-0.00657945661759,0.834241105929,0.33,0.15,-1.08191067621e-10,0.0,0.0,0.0,0.0,0.0,0.0,0.33,-0.15,8.79292523218e-12,0.0,0.0,0.0,0.0,0.0,0.0,-0.33,0.15,5.60163493609e-11,0.0,0.0,0.0,0.0,0.0,0.0,-0.33,-0.15,-1.77726255173e-10,0.0,0.0,0.0,0.0,0.0,0.0,7.49738246171,6.09486469193,69.8480327678,-0.000430659680841,-2.18145083599,48.0685680469,0.474569807721,-1.26668106827,49.3112674782,-0.513763033576,0.451600221668,81.3055413157,1,1,1,1
72501000,72500000,0.000143757991349,1.02407435573e-05,0.46918935022,-0.00029112529395,-0.000219602694374,0.000512814276177,0.999999802021,0.00720467277346,0.00128701491698,-0.029375920372,-0.021819672274,-0.0117541489045,0.0384587803251,0.268046608678,0.083106032739,-0.580398960187,-0.476552176861,0.0297894942603,0.841324965217,0.33,0.15,-1.08191067621e-10,0.0,0.0,0.0,0.0,0.0,0.0,0.33,-0.15,8.79292523218e-12,0.0,0.0,0.0,0.0,0.0,0.0,-0.33,0.15,5.60163493609e-11,0.0,0.0,0.0,0.0,0.0,0.0,-0.33,-0.15,-1.77726255173e-10,0.0,0.0,0.0,0.0,0.0,0.0,8.00790236909,6.30735771632,69.4604199429,0.00687217304334,-2.15196639607,48.0473110538,0.442751794217,-1.33533535481,49.3150502623,-0.576389442536,0.442591372996,81.4944110015,1,1,1,1
75001000,75000000,0.000162624543143,1.37261903081e-05,0.469114101033,-0.00031914284944,-0.000234228912961,0.000562207289881,0.999999763604,0.00789550984432,0.00150465910225,-0.0308215136813,-0.0230150699917,-0.0116315859098,0.0405693194769,0.28470544636,0.0910659172498,-0.575802237531,-0.479619512118,0.0686814176196,0.846845932924,0.33,0.15,-1.08191067621e-10,0.0,0.0,0.0,0.0,0.0,0.0,0.33,-0.15,8.79292523218e-12,0.0,0.0,0.0,0.0,0.0,0.0,-0.33,0.15,5.60163493609e-11,0.0,0.0,0.0,0.0,0.0,0.0,-0.33,-0.15,-1.77726255173e-10,0.0,0.0,0.0,0.0,0.0,0.0,8.51977761387,6.52038730831,69.0730181321,0.0141039304849,-2.12177922455,48.032041778,0.410144837104,-1.40509476242,49.3237744707,-0.636336946542,0.433325007036,81.6777771378,1,1,1,1
77501000,77500000,0.000183270761472,1.77809759223e-05,0.469035253937,-0.000348658243916,-0.000248639846164,0.000614246707987,0.999999719658,0.00862861199699,0.00174262751207,-0.0322535643107,-0.0242170383792,-0.011408639113,0.0426917081778,0.30185867412,0.0993654123766,-0.569564816216,-0.481809105688,0.110096587316,0.850804727736,0.33,0.15,-1.08191067621e-10,0.0,0.0,0.0,0.0,0.0,0.0,0.33,-0.15,8.79292523218e-12,0.0,0.0,0.0,0.0,0.0,0.0,-0.33,0.15,5.60163493609e-11,0.0,0.0,0.0,0.0,0.0,0.0,-0.33,-0.15,-1.77726255173e-10,0.0,0.0,0.0,0.0,0.0,0.0,9.03188682643,6.73347947836,68.6867029026,0.0212532402901,-2.09090688645,48.0226169742,0.376785835329,-1.47585548036,49.3373256268,-0.693275244354,0.423806467631,81.854790138,1,1,1,1
80001000,80000000,0.000205803854009,2.24569722444e-05,0.468952847915,-0.00037967818817,-0.000262706071614,0.00066894497624,0.999999669671,0.00940521520666,0.00200176917298,-0.0336679705135,-0.0254233860887,-0.0110789999843,0.0448220419365,0.319506291959,0.10800451812,-0.561686696241,-0.483123386055,0.154035346077,0.853202108834,0.33,0.15,-1.08191067621e-10,0.0,0.0,0.0,0.0,0.0,0.0,0.33,-0.15,8.79292523218e-12,0.0,0.0,0.0,0.0,0.0,0.0,-0.33,0.15,5.60163493609e-11,0.0,0.0,0.0,0.0,0.0,0.0,-0.33,-0.15,-1.77726255173e-10,0.0,0.0,0.0,0.0,0.0,0.0,9.54310863717,6.94616023695,68.3023498215,0.0283087301055,-2.05936694678,48.018893397,0.342711687836,-1.5475136979,49.3555892534,-0.746874034734,0.414041098623,82.0246004155,1,1,1,1
82501000,82500000,0.000230334118366,2.78081736852e-05,0.468866932206,-0.000412206639466,-0.000276290280708,0.000726309671211,0.999999613112,0.0102265554485,0.00228293311152,-0.0350606305431,-0.0266319280166,-0.0106363590502,0.046956418206,0.337648299876,0.116983234479,-0.552167877605,-0.483564919398,0.200498106124,0.85403887176,0.33,0.15,-1.08191067621e-10,0.0,0.0,0.0,0.0,0.0,0.0,0.33,-0.15,8.79292523218e-12,0.0,0.0,0.0,0.0,0.0,0.0,-0.33,0.15,5.60163493609e-11,0.0,0.0,0.0,0.0,0.0,0.0,-0.33,-0.15,-1.77726255173e-10,0.0,0.0,0.0,0.0,0.0,0.0,10.0523216765,7.15795559453,67.9208344562,0.0352590275774,-2.02717697056,48.0207278012,0.307959293572,-1.6199656043,49.3784508739,-0.796803016441,0.404034243856,82.1863583835,1,1,1,1
85001000,85000000,0.000256974942091,3.38906972221e-05,0.468777566303,-0.000446244807737,-0.000289247277309,0.000786343503804,0.999999549433,0.0110938686978,0.00258696835422,-0.0364274426527,-0.0278404856415,-0.0100744057195,0.0490909364688,0.356284697872,0.126301561454,-0.541008360309,-0.483136403918,0.249485349482,0.85331584379,0.33,0.15,-1.08191067621e-10,0.0,0.0,0.0,0.0,0.0,0.0,0.33,-0.15,8.79292523218e-12,0.0,0.0,0.0,0.0,0.0,0.0,-0.33,0.15,5.60163493609e-11,0.0,0.0,0.0,0.0,0.0,0.0,-0.33,-0.15,-1.77726255173e-10,0.0,0.0,0.0,0.0,0.0,0.0,10.5584045748,7.36839156157,67.5430323739,0.0420927603522,-1.9943545228,48.0279769413,0.272565551481,-1.69310738883,49.4057960113,-0.842731888236,0.393791247171,82.3392144554,1,1,1,1
87501000,87500000,0.000285842802673,4.07627823986e-05,0.468684819951,-0.00048179116208,-0.000301423976235,0.000849044322939,0.999999478072,0.0120083909296,0.00291472392763,-0.0377643050957,-0.0290468873453,-0.00938682810874,0.0512216983101,0.375415485946,0.135959499045,-0.528208144352,-0.481840663304,0.300997627989,0.851033878802,0.33,0.15,-1.08191067621e-10,0.0,0.0,0.0,0.0,0.0,0.0,0.33,-0.15,8.79292523218e-12,0.0,0.0,0.0,0.0,0.0,0.0,-0.33,0.15,5.60163493609e-11,0.0,0.0,0.0,0.0,0.0,0.0,-0.33,-0.15,-1.77726255173e-10,0.0,0.0,0.0,0.0,0.0,0.0,11.0602359624,7.57699414852,67.1698191417,0.0487985560762,-1.96091716852,48.0404975722,0.23656736051,-1.76683524075,49.4375101887,-0.884330348881,0.383317452413,82.4823190446,1,1,1,1
90001000,90000000,0.000317057267537,4.84847913247e-05,0.468588773153,-0.000518841437517,-0.000312659401529,0.000914405119373,0.999999398455,0.0129713581192,0.00326704885829,-0.0390671161256,-0.0302489687188,-0.00856731286773,0.0533448074773,0.395040664098,0.145957047252,-0.513767229736,-0.479680639326,0.355035562992,0.847193851666,0.33,0.15,-1.08191067621e-10,0.0,0.0,0.0,0.0,0.0,0.0,0.33,-0.15,8.79292523218e-12,0.0,0.0,0.0,0.0,0.0,0.0,-0.33,0.15,5.60163493609e-11,0.0,0.0,0.0,0.0,0.0,0.0,-0.33,-0.15,-1.77726255173e-10,0.0,0.0,0.0,0.0,0.0,0.0,11.5566944699,7.78328936586,66.8020703269,0.055365042396,-1.92688247273,48.0581464483,0.200001619603,-1.84104534933,49.4734789292,-0.921268097135,0.372618203423,82.6148225644,1,1,1,1
92501000,92500000,0.000350740994047,5.71192086766e-05,0.468489516165,-0.000557388642008,-0.000322784684506,0.000982414029671,0.999999309995,0.0139840062418,0.00364479217274,-0.0403317739955,-0.031444572846,-0.00760954500671,0.0554563699246,0.415160232329,0.156294206075,-0.497685616459,-0.476659383559,0.411599844743,0.841796652122,0.33,0.15,-1.08191067621e-10,0.0,0.0,0.0,0.0,0.0,0.0,0.33,-0.15,8.79292523218e-12,0.0,0.0,0.0,0.0,0.0,0.0,-0.33,0.15,5.60163493609e-11,0.0,0.0,0.0,0.0,0.0,0.0,-0.33,-0.15,-1.77726255173e-10,0.0,0.0,0.0,0.0,0.0,0.0,12.0466587274,7.98680322405,66.4406614968,0.0617808469578,-1.89226800045,48.0807803246,0.162905227706,-1.91563390384,49.5135877561,-0.953214831759,0.361698844044,82.7358754281,1,1,1,1
95001000,95000000,0.000387019729503,6.6730641697e-05,0.468387149496,-0.000597423063664,-0.000331623061581,0.00105305434028,0.999999212094,0.0150475712726,0.00404880289752,-0.041554176959,-0.0326315505678,-0.00650720772504,0.0575524938425,0.435774190638,0.166970975515,-0.479963304522,-0.472780048235,0.470691231496,0.834843178175,0.33,0.15,-1.08191067621e-10,0.0,0.0,0.0,0.0,0.0,0.0,0.33,-0.15,8.79292523218e-12,0.0,0.0,0.0,0.0,0.0,0.0,-0.33,0.15,5.60163493609e-11,0.0,0.0,0.0,0.0,0.0,0.0,-0.33,-0.15,-1.77726255173e-10,0.0,0.0,0.0,0.0,0.0,0.0,12.5290073656,8.18706173355,66.0864682185,0.0680345974081,-1.85709131669,48.1082559555,0.125315083765,-1.99049709354,49.5577221923,-0.979840251515,0.350564718119,82.8446280491,1,1,1,1
97501000,97500000,0.000426022311146,7.73858201949e-05,0.468281783911,-0.000638932278158,-0.000338989871892,0.00112630449174,0.999999104144,0.0161632891868,0.00447993005916,-0.0427302232693,-0.0338077607211,-0.00525398224267,0.0596292896696,0.456882539026,0.17798735557,-0.460600293925,-0.46804587623,0.532310548301,0.82633432899,0.33,0.15,-1.08191067621e-10,0.0,0.0,0.0,0.0,0.0,0.0,0.33,-0.15,8.79292523218e-12,0.0,0.0,0.0,0.0,0.0,0.0,-0.33,0.15,5.60163493609e-11,0.0,0.0,0.0,0.0,0.0,0.0,-0.33,-0.15,-1.77726255173e-10,0.0,0.0,0.0,0.0,0.0,0.0,13.0026190147,8.38359090482,65.7403660592,0.0741149213932,-1.82136998648,48.1404300959,0.0872680867248,-2.0655311077,49.6057677611,-1.00081405516,0.339221169491,82.9402308408,1,1,1,1
100001000,100000000,0.000467880666153,8.91535965456e-05,0.468173540428,-0.000681901156271,-0.000344692554702,0.00120213808289,0.99999898553,0.0173323959595,0.00493902268422,-0.0438558111797,-0.034971070352,-0.00384354763497,0.0616828700858,0.478485277492,0.189343346242,-0.439596584667,-0.462460190168,0.596458685501,0.816270997293,0.33,0.15,-1.08191067621e-10,0.0,0.0,0.0,0.0,0.0,0.0,0.33,-0.15,8.79292523218e-12,0.0,0.0,0.0,0.0,0.0,0.0,-0.33,0.15,5.60163493609e-11,0.0,0.0,0.0,0.0,0.0,0.0,-0.33,-0.15,-1.77726255173e-10,0.0,0.0,0.0,0.0,0.0,0.0,13.4663723051,8.57591674833,65.4032305863,0.0800104465595,-1.78512157482,48.1771595003,0.0488011355312,-2.14063213558,49.6576099856,-1.01580594146,0.327673542002,83.0218342164,1,1,1,1
102501000,102500000,0.000512729811638,0.000102104945691,0.468062550322,-0.00072631187155,-0.000348530646601,0.00128052387527,0.999998855627,0.018556127566,0.00542692979922,-0.0449268389437,-0.0361193549008,-0.00226958067167,0.0637093499864,0.500582406037,0.20103894753,-0.41695217675,-0.456026380657,0.663136596941,0.804654061277,0.33,0.15,-1.08191067621e-10,0.0,0.0,0.0,0.0,0.0,0.0,0.33,-0.15,8.79292523218e-12,0.0,0.0,0.0,0.0,0.0,0.0,-0.33,0.15,5.60163493609e-11,0.0,0.0,0.0,0.0,0.0,0.0,-0.33,-0.15,-1.77726255173e-10,0.0,0.0,0.0,0.0,0.0,0.0,13.9191458673,8.76356527455,65.0759373669,0.0857098005535,-1.74836364672,48.2183009235,0.00995112912962,-2.21569636645,49.7131343889,-1.02448560917,0.315927179496,83.0885885893,1,1,1,1
105001000,105000000,0.000560707854657,0.000116312965139,0.467948955118,-0.000772143908038,-0.000350295778503,0.00136142579741,0.999998713802,0.0198357199814,0.00594450043071,-0.0459392048146,-0.0372504983562,-0.000525755660661,0.0657048464353,0.52317392466,0.213074159433,-0.392667070172,-0.448747893656,0.732345297875,0.791484376016,0.33,0.15,-1.08191067621e-10,0.0,0.0,0.0,0.0,0.0,0.0,0.33,-0.15,8.79292523218e-12,0.0,0.0,0.0,0.0,0.0,0.0,-0.33,0.15,5.60163493609e-11,0.0,0.0,0.0,0.0,0.0,0.0,-0.33,-0.15,-1.77726255173e-10,0.0,0.0,0.0,0.0,0.0,0.0,14.3598183316,8.94606249392,64.7593619683,0.0912016110214,-1.71111376722,48.2637111201,-0.0292450335345,-2.29061998958,49.772226494,-1.02652275706,0.303987425815,83.1396443729,1,1,1,1
107501000,107500000,0.000611955992199,0.000131852874964,0.4678329066,-0.000819374068025,-0.000349771672451,0.00144480294922,0.999998559414,0.021172409181,0.00649258360523,-0.0468888070457,-0.0383623933769,0.00139425570263,0.0676654785957,0.546259833361,0.225448981953,-0.366741264934,-0.440628216957,0.804085862595,0.776762764377,0.33,0.15,-1.08191067621e-10,0.0,0.0,0.0,0.0,0.0,0.0,0.33,-0.15,8.79292523218e-12,0.0,0.0,0.0,0.0,0.0,0.0,-0.33,0.15,5.60163493609e-11,0.0,0.0,0.0,0.0,0.0,0.0,-0.33,-0.15,-1.77726255173e-10,0.0,0.0,0.0,0.0,0.0,0.0,14.7872683284,9.12293441693,64.4543799577,0.0964745056098,-1.67338950131,48.3132468448,-0.0687504535157,-2.36529919423,49.8347718243,-0.99019923407,0.311607220084,83.2185589366,1,1,1,1
110001000,110000000,0.000666618511194,0.000148802017806,0.467714566804,-0.000867976479777,-0.000346734138237,0.00153060960638,0.999998391812,0.0225674311399,0.00707202834932,-0.0477715438904,-0.0394529413786,0.00349678447954,0.0695873676376,0.569840132141,0.238163415089,-0.339174761035,-0.431670865795,0.878359421766,0.760490007446,0.33,0.15,-1.08191067621e-10,0.0,0.0,0.0,0.0,0.0,0.0,0.33,-0.15,8.79292523218e-12,0.0,0.0,0.0,0.0,0.0,0.0,-0.33,0.15,5.60163493609e-11,0.0,0.0,0.0,0.0,0.0,0.0,-0.33,-0.15,-1.77726255173e-10,0.0,0.0,0.0,0.0,0.0,0.0,15.2003744882,9.29370705402,64.1618669022,0.101517111965,-1.63520841402,48.3667648523,-0.108528231868,-2.43963016967,49.9006559026,-0.82215232354,0.397558770716,83.4573287885,1,1,1,1
112501000,112500000,0.00072484278851,0.000167239858874,0.46759410802,-0.0009179226052,-0.000340951069834,0.00161879522456,0.999998210335,0.0240220218334,0.00768368368952,-0.048583313602,-0.0405200525835,0.00578816462552,0.0714666366213,0.593914820999,0.251217458841,-0.309967558477,-0.421879367592,0.955167159481,0.742666834455,0.33,0.15,-1.08191067621e-10,0.0,0.0,0.0,0.0,0.0,0.0,0.33,-0.15,8.79292523218e-12,0.0,0.0,0.0,0.0,0.0,0.0,-0.33,0.15,5.60163493609e-11,0.0,0.0,0.0,0.0,0.0,0.0,-0.33,-0.15,-1.77726255173e-10,0.0,0.0,0.0,0.0,0.0,0.0,15.5980154413,9.45790641567,63.8826983692,0.106318057733,-1.59658807036,48.4241218973,-0.148541469647,-2.51350910516,49.9697642523,-0.522294506933,0.562185607014,83.8573131658,1,1,1,1
115001000,115000000,0.000786779290953,0.000187247985939,0.467471712794,-0.000969181247378,-0.000332182441672,0.00170930444373,0.999998014308,0.0255374172367,0.00832839865238,-0.0493200144339,-0.0415616460308,0.00827473311968,0.0732994103542,0.618483899936,0.264611113209,-0.279119657258,-0.411257245808,1.03451031004,0.72329391221,0.33,0.15,-1.08191067621e-10,0.0,0.0,0.0,0.0,0.0,0.0,0.33,-0.15,8.79292523218e-12,0.0,0.0,0.0,0.0,0.0,0.0,-0.33,0.15,5.60163493609e-11,0.0,0.0,0.0,0.0,0.0,0.0,-0.33,-0.15,-1.77726255173e-10,0.0,0.0,0.0,0.0,0.0,0.0,15.9790698182,9.61505851234,63.6177499258,0.110865970561,-1.55754603534,48.4851747345,-0.188753267907,-2.58683218997,50.0419823964,-0.0974135266827,0.801514060954,84.4101877634,1,1,1,1
117501000,117500000,0.000852581575265,0.000208910109343,0.467347573924,-0.00102171855794,-0.00032018030474,0.00180207709223,0.999997803045,0.0271148533248,0.00900702226442,-0.0499775446394,-0.042575649546,0.010962830086,0.0750818152214,0.643547368951,0.278344378194,-0.246631057379,-0.399808002931,1.11639015442,0.702371834032,0.33,0.15,-1.08191067621e-10,0.0,0.0,0.0,0.0,0.0,0.0,0.33,-0.15,8.79292523218e-12,0.0,0.0,0.0,0.0,0.0,0.0,-0.33,0.15,5.60163493609e-11,0.0,0.0,0.0,0.0,0.0,0.0,-0.33,-0.15,-1.77726255173e-10,0.0,0.0,0.0,0.0,0.0,0.0,16.3424162491,9.76468935449,63.3678971393,0.115149478095,-1.51809987399,48.5497801185,-0.229126727701,-2.65949561336,50.1171958581,0.445702874779,1.11157046451,85.1076282757,1,1,1,1
120001000,120000000,0.000922406288127,0.000232312061991,0.467221894464,-0.00107549804418,-0.00030468878255,0.00189704819079,0.999997575835,0.0287555660731,0.00972040355219,-0.0505518024719,-0.0435599996659,0.0138587989055,0.0768099789873,0.669105228044,0.292417253794,-0.212501758839,-0.387535102587,1.20080801656,0.679901108199,0.33,0.15,-1.08191067621e-10,0.0,0.0,0.0,0.0,0.0,0.0,0.33,-0.15,8.79292523218e-12,0.0,0.0,0.0,0.0,0.0,0.0,-0.33,0.15,5.60163493609e-11,0.0,0.0,0.0,0.0,0.0,0.0,-0.33,-0.15,-1.77726255173e-10,0.0,0.0,0.0,0.0,0.0,0.0,16.6869333646,9.90632495258,63.134015577,0.119157207981,-1.47826715132,48.617794804,-0.269624950086,-2.73139556461,50.1952901604,1.10026695502,1.48838114967,85.9413103975,1,1,1,1
122501000,122500000,0.00099641316616,0.000257541799356,0.467094887723,-0.00113048057593,-0.000285444066959,0.00199414795628,0.999997331951,0.0304607914568,0.0104693915422,-0.0510386861847,-0.0445126415182,0.0169689863183,0.0784800305684,0.695157477216,0.30682974001,-0.17673176164,-0.37444195077,1.28776525924,0.655882145892,0.33,0.15,-1.08191067621e-10,0.0,0.0,0.0,0.0,0.0,0.0,0.33,-0.15,8.79292523218e-12,0.0,0.0,0.0,0.0,0.0,0.0,-0.33,0.15,5.60163493609e-11,0.0,0.0,0.0,0.0,0.0,0.0,-0.33,-0.15,-1.77726255173e-10,0.0,0.0,0.0,0.0,0.0,0.0,17.011499795,10.0394913171,62.9169808059,0.122877787866,-1.43806543234,48.6890755457,-0.310211036114,-2.80242823297,50.2761508266,1.8594909716,1.9279724484,86.9029098234,1,1,1,1
125001000,125000000,0.00107476503592,0.000284689399476,0.466966777263,-0.00118662439198,-0.000262174413869,0.00209330180538,0.999997070633,0.032231765451,0.0112548352611,-0.0514340940312,-0.0454315286535,0.0202997425158,0.0800880997744,0.721704116467,0.321581836843,-0.13932106578,-0.360531876214,1.3772632798,0.630315248647,0.33,0.15,-1.08191067621e-10,0.0,0.0,0.0,0.0,0.0,0.0,0.33,-0.15,8.79292523218e-12,0.0,0.0,0.0,0.0,0.0,0.0,-0.33,0.15,5.60163493609e-11,0.0,0.0,0.0,0.0,0.0,0.0,-0.33,-0.15,-1.77726255173e-10,0.0,0.0,0.0,0.0,0.0,0.0,17.3149941707,10.1637144585,62.7176683934,0.126299845396,-1.39751228206,48.7634790982,-0.350848086841,-2.87248980772,50.3596633796,2.7165871821,2.42637069268,87.9841022481,1,1,1,1
127501000,127500000,0.0011576278139,0.000313847062958,0.466837796901,-0.00124388510621,-0.000234600138816,0.00219443035784,0.999996791089,0.0340697240308,0.0120775837353,-0.0517339242647,-0.0463146228261,0.023857421221,0.0816303170187,0.748745145795,0.336673544291,-0.10026967126,-0.345808109874,1.46930350555,0.603200595315,0.33,0.15,-1.08191067621e-10,0.0,0.0,0.0,0.0,0.0,0.0,0.33,-0.15,8.79292523218e-12,0.0,0.0,0.0,0.0,0.0,0.0,-0.33,0.15,5.60163493609e-11,0.0,0.0,0.0,0.0,0.0,0.0,-0.33,-0.15,-1.77726255173e-10,0.0,0.0,0.0,0.0,0.0,0.0,17.5962951221,10.2785203872,62.5369539067,0.129412008218,-1.35662526551,48.8408622163,-0.391499203322,-2.94147647812,50.4457133427,3.66476784407,2.97960221448,89.1765633663,1,1,1,1
130001000,130000000,0.00124517050654,0.000345109112971,0.466708190708,-0.00130221571312,-0.000202433612464,0.00229744943962,0.999996492484,0.0359759031717,0.0129384859914,-0.0519340751386,-0.0471598937235,0.0276483797577,0.083102812994,0.776280565203,0.352104862356,-0.0595775780798,-0.330273763552,1.56388738893,0.574538228522,0.33,0.15,-1.08191067621e-10,0.0,0.0,0.0,0.0,0.0,0.0,0.33,-0.15,8.79292523218e-12,0.0,0.0,0.0,0.0,0.0,0.0,-0.33,0.15,5.60163493609e-11,0.0,0.0,0.0,0.0,0.0,0.0,-0.33,-0.15,-1.77726255173e-10,0.0,0.0,0.0,0.0,0.0,0.0,17.8542812796,10.3834351137,62.3757129131,0.132202903977,-1.3154219477,48.9210816546,-0.43212748661,-3.00928443343,50.534186239,4.69724521508,3.58369334579,90.4719688725,1,1,1,1
132501000,132500000,0.00133756521021,0.000378571995255,0.466578213009,-0.00136156659288,-0.000165379256022,0.00240227008555,0.999996173935,0.0379515388486,0.0138383910559,-0.0520304449062,-0.0479653186404,0.0316789791069,0.0845017183149,0.804310374688,0.367875791037,-0.0172447862393,-0.313931807652,1.66101640237,0.544328040639,0.33,0.15,-1.08191067621e-10,0.0,0.0,0.0,0.0,0.0,0.0,0.33,-0.15,8.79292523218e-12,0.0,0.0,0.0,0.0,0.0,0.0,-0.33,0.15,5.60163493609e-11,0.0,0.0,0.0,0.0,0.0,0.0,-0.33,-0.15,-1.77726255173e-10,0.0,0.0,0.0,0.0,0.0,0.0,18.0878312736,10.4779846485,62.2348209796,0.134661160321,-1.27391989365,49.0039941679,-0.472696037761,-3.07580986292,50.6249675916,5.80723155271,4.23467041858,91.8619944615,1,1,1,1
135001000,135000000,0.00143498711121,0.000414334278113,0.466448128386,-0.00142188551565,-0.000123133536594,0.00250879854168,0.999995834496,0.0399978670368,0.0147781479554,-0.0520189318209,-0.0487288820972,0.0359555839502,0.0858231631242,0.832834574252,0.383986330334,0.0267287042614,-0.296785048069,1.76069203297,0.512569759252,0.33,0.15,-1.08191067621e-10,0.0,0.0,0.0,0.0,0.0,0.0,0.33,-0.15,8.79292523218e-12,0.0,0.0,0.0,0.0,0.0,0.0,-0.33,0.15,5.60163493609e-11,0.0,0.0,0.0,0.0,0.0,0.0,-0.33,-0.15,-1.77726255173e-10,0.0,0.0,0.0,0.0,0.0,0.0,18.2958237344,10.5616950019,62.1151536736,0.136775404895,-1.23213666836,49.0894565107,-0.513167957828,-3.14094895586,50.7179429236,6.98793911452,4.92855976482,93.3383158279,1,1,1,1
137501000,137500000,0.0015376144858,0.000452496652417,0.466318211671,-0.00148311764533,-7.53849624881e-05,0.00261693626726,0.999995473152,0.0421161237116,0.0157586057164,-0.051895434136,-0.0494485753981,0.0404845626994,0.0870632766619,0.861853163895,0.400436480246,0.0723428934224,-0.278836102216,1.86291577684,0.47926293214,0.33,0.15,-1.08191067621e-10,0.0,0.0,0.0,0.0,0.0,0.0,0.33,-0.15,8.79292523218e-12,0.0,0.0,0.0,0.0,0.0,0.0,-0.33,0.15,5.60163493609e-11,0.0,0.0,0.0,0.0,0.0,0.0,-0.33,-0.15,-1.77726255173e-10,0.0,0.0,0.0,0.0,0.0,0.0,18.4771372926,10.6340921846,62.0175865623,0.138534265347,-1.19008983685,49.1773254378,-0.553506347867,-3.20459790151,50.8129977582,8.23258015807,5.6613877165,94.8926086663,1,1,1,1
140001000,140000000,0.00164562870015,0.000493161931602,0.466188747954,-0.00154520554239,-2.18140784989e-05,0.00272657993616,0.999995088801,0.044307544848,0.0167806133655,-0.0516558501049,-0.0501223961298,0.0452722875116,0.0882181867964,0.891366143615,0.417226240775,0.119597781244,-0.260087374203,1.96768913323,0.444406911761,0.33,0.15,-1.08191067621e-10,0.0,0.0,0.0,0.0,0.0,0.0,0.33,-0.15,8.79292523218e-12,0.0,0.0,0.0,0.0,0.0,0.0,-0.33,0.15,5.60163493609e-11,0.0,0.0,0.0,0.0,0.0,0.0,-0.33,-0.15,-1.77726255173e-10,0.0,0.0,0.0,0.0,0.0,0.0,18.6306505784,10.694702207,61.9429952129,0.139926369322,-1.14779696415,49.2674577038,-0.593674308931,-3.26665288914,50.9100176185,9.53436694093,6.4291806056,96.5165486715,1,1,1,1
142501000,142500000,0.0017592142104,0.000536435051673,0.466060032577,-0.00160808916591,3.79065388192e-05,0.00283762143782,0.999994680244,0.0465733664214,0.0178450199292,-0.0512960779809,-0.0507483475957,0.0503251342898,0.0892840195169,0.921373513415,0.434355611921,0.168493367725,-0.240541029158,2.0750135984,0.408000839232,0.33,0.15,-1.08191067621e-10,0.0,0.0,0.0,0.0,0.0,0.0,0.33,-0.15,8.79292523218e-12,0.0,0.0,0.0,0.0,0.0,0.0,-0.33,0.15,5.60163493609e-11,0.0,0.0,0.0,0.0,0.0,0.0,-0.33,-0.15,-1.77726255173e-10,0.0,0.0,0.0,0.0,0.0,0.0,18.7552422224,10.7430510794,61.8922551926,0.140940344467,-1.10527561526,49.3597100635,-0.633634942076,-3.32701010801,51.0088880275,10.8865117207,7.22796476407,98.201811538,1,1,1,1
145001000,145000000,0.0018785585626,0.000582423071199,0.465932371139,-0.0016717058746,0.00010411228586,0.00294994787769,0.999994246167,0.0489148244068,0.018952674434,-0.0508120160174,-0.0513244381859,0.0556494826671,0.0902568983836,0.951875273292,0.451824593682,0.219029652867,-0.2201989667,2.18489065923,0.370043627828,0.33,0.15,-1.08191067621e-10,0.0,0.0,0.0,0.0,0.0,0.0,0.33,-0.15,8.79292523218e-12,0.0,0.0,0.0,0.0,0.0,0.0,-0.33,0.15,5.60163493609e-11,0.0,0.0,0.0,0.0,0.0,0.0,-0.33,-0.15,-1.77726255173e-10,0.0,0.0,0.0,0.0,0.0,0.0,18.8497908548,10.7786648125,61.8662420687,0.141564818428,-1.0625433552,49.4539392714,-0.673351348356,-3.3855657474,51.1094945085,12.2822267549,8.05376652391,99.9400729605,1,1,1,1
147501000,147500000,0.00200385239276,0.000631235171316,0.46580607949,-0.00173599042688,0.000177146536641,0.00306344157691,0.999993785122,0.0513331547796,0.0201044259064,-0.0501995624677,-0.0518486806792,0.0612517159753,0.0911329439379,0.982871423249,0.469633186059,0.271206636669,-0.199062793585,2.2973217866,0.330533945976,0.33,0.15,-1.08191067621e-10,0.0,0.0,0.0,0.0,0.0,0.0,0.33,-0.15,8.79292523218e-12,0.0,0.0,0.0,0.0,0.0,0.0,-0.33,0.15,5.60163493609e-11,0.0,0.0,0.0,0.0,0.0,0.0,-0.33,-0.15,-1.77726255173e-10,0.0,0.0,0.0,0.0,0.0,0.0,18.913175106,10.8010694165,61.8658314084,0.141788418851,-1.01961774899,49.5500020824,-0.712786628826,-3.44221599656,51.2117225846,13.7147243011,8.9026122171,101.723008634,1,1,1,1
150001000,150000000,0.0021352894268,0.000682982655726,0.465681483737,-0.00180087497968,0.000257360647413,0.00317798007154,0.999993295506,0.0538295935148,0.0213011233731,-0.0494546155852,-0.052319091476,0.0671382211964,0.0919082730677,1.01436196328,0.487781389052,0.325024319131,-0.177133795505,2.41230842849,0.289470199757,0.33,0.15,-1.08191067621e-10,0.0,0.0,0.0,0.0,0.0,0.0,0.33,-0.15,8.79292523218e-12,0.0,0.0,0.0,0.0,0.0,0.0,-0.33,0.15,5.60163493609e-11,0.0,0.0,0.0,0.0,0.0,0.0,-0.33,-0.15,-1.77726255173e-10,0.0,0.0,0.0,0.0,0.0,0.0,18.9442736066,10.8097909021,61.8918987789,0.141599773384,-0.976516361644,49.6477552509,-0.751903884539,-3.49685704476,51.3154577789,15.1772166168,9.7705281756,103.542294252,1,1,1,1
152501000,152500000,0.00227306648061,0.000737778950699,0.465558920241,-0.00186628908618,0.000345113961193,0.00329343611084,0.999992775544,0.0564053765877,0.0225436158605,-0.0485730736232,-0.0527336897595,0.0733153888959,0.0925789983295,1.0463468934,0.506269202662,0.380482700253,-0.15441290808,2.52985200284,0.246850514913,0.33,0.15,-1.08191067621e-10,0.0,0.0,0.0,0.0,0.0,0.0,0.33,-0.15,8.79292523218e-12,0.0,0.0,0.0,0.0,0.0,0.0,-0.33,0.15,5.60163493609e-11,0.0,0.0,0.0,0.0,0.0,0.0,-0.33,-0.15,-1.77726255173e-10,0.0,0.0,0.0,0.0,0.0,0.0,18.9305447045,10.7954925147,61.9396470633,0.140987509672,-0.93325675817,49.7470555319,-0.790666216551,-3.54938508127,51.4205856144,16.6629159598,10.6535407314,105.389605511,1,1,1,1
155001000,155000000,0.00241738346,0.000795739605068,0.465438735617,-0.00193215969207,0.000440773812185,0.00340967765496,0.999992223258,0.0590617399735,0.0238327523953,-0.047550834835,-0.0530904965831,0.0797896131393,0.0931412272246,1.07882621359,0.525096626887,0.437581780036,-0.13090068702,2.64995389018,0.202672718358,0.33,0.15,-1.08191067621e-10,0.0,0.0,0.0,0.0,0.0,0.0,0.33,-0.15,8.79292523218e-12,0.0,0.0,0.0,0.0,0.0,0.0,-0.33,0.15,5.60163493609e-11,0.0,0.0,0.0,0.0,0.0,0.0,-0.33,-0.15,-1.77726255173e-10,0.0,0.0,0.0,0.0,0.0,0.0,18.8416646322,10.7346629848,61.9939959067,0.139940255362,-0.889856503589,49.8477596798,-0.829036725916,-3.59969629536,51.5269916145,18.1650345874,11.5476762165,107.256618104,1,1,1,1
157501000,157500000,0.00256844336072,0.000856982290236,0.465321286733,-0.00199841113053,0.000544715530058,0.00352656787165,0.999991636444,0.0617999196474,0.0251693820038,-0.0463837974741,-0.0533875338832,0.0865672913887,0.0935910614285,1.11179992386,0.544263661729,0.496321558479,-0.106597277498,2.77261542597,0.156934319195,0.33,0.15,-1.08191067621e-10,0.0,0.0,0.0,0.0,0.0,0.0,0.33,-0.15,8.79292523218e-12,0.0,0.0,0.0,0.0,0.0,0.0,-0.33,0.15,5.60163493609e-11,0.0,0.0,0.0,0.0,0.0,0.0,-0.33,-0.15,-1.77726255173e-10,0.0,0.0,0.0,0.0,0.0,0.0,18.6784461036,10.6275784653,62.0538744703,0.1384466381,-0.846333162916,49.9497244495,-0.866978513688,-3.64768687628,51.634561302,19.6767847573,12.4489609628,109.135007727,1,1,1,1
160001000,160000000,0.00272645226846,0.000921626800171,0.465206940713,-0.00206496511558,0.000657322444072,0.00364396513224,0.999991012642,0.0646211515846,0.0265543537127,-0.0450678597938,-0.0536228234128,0.09365482438,0.0939245959715,1.14526802421,0.563770307187,0.556702035582,-0.0815023827208,2.89783789272,0.109632489237,0.33,0.15,-1.08191067621e-10,0.0,0.0,0.0,0.0,0.0,0.0,0.33,-0.15,8.79292523218e-12,0.0,0.0,0.0,0.0,0.0,0.0,-0.33,0.15,5.60163493609e-11,0.0,0.0,0.0,0.0,0.0,0.0,-0.33,-0.15,-1.77726255173e-10,0.0,0.0,0.0,0.0,0.0,0.0,18.4434989117,10.4758997131,62.1190657348,0.136495285532,-0.802704301165,50.0528065955,-0.904454680923,-3.69325301331,51.7431802003,21.1913787271,13.3534213023,111.016450073,1,1,1,1
162501000,162500000,0.00289161935884,0.000989795051406,0.465096074935,-0.00213174073388,0.000778985887001,0.00376172300649,0.999990349105,0.0675266717602,0.0279885165486,-0.0435989200473,-0.0537943855973,0.101058615981,0.0941379183716,1.17923051463,0.58361656326,0.618723211345,-0.0556152317238,3.02562251184,0.0607640430343,0.33,0.15,-1.08191067621e-10,0.0,0.0,0.0,0.0,0.0,0.0,0.33,-0.15,8.79292523218e-12,0.0,0.0,0.0,0.0,0.0,0.0,-0.33,0.15,5.60163493609e-11,0.0,0.0,0.0,0.0,0.0,0.0,-0.33,-0.15,-1.77726255173e-10,0.0,0.0,0.0,0.0,0.0,0.0,18.1394328493,10.2812874852,62.189352681,0.134074825306,-0.758987483352,50.1568628726,-0.941428328674,-3.73629089572,51.8527338324,22.7020287543,14.2570835671,112.892620838,1,1,1,1
165001000,165000000,0.00306415689744,0.00106161108304,0.464989077032,-0.00219865443475,0.000910105198836,0.00387969025658,0.999989642762,0.0705177161494,0.0294727195379,-0.0419728764882,-0.0539002383078,0.108785073028,0.0942271077149,1.21368739514,0.60380242995,0.682385085768,-0.0289345464011,3.15597043523,0.0103254174066,0.33,0.15,-1.08191067621e-10,0.0,0.0,0.0,0.0,0.0,0.0,0.33,-0.15,8.79292523218e-12,0.0,0.0,0.0,0.0,0.0,0.0,-0.33,0.15,5.60163493609e-11,0.0,0.0,0.0,0.0,0.0,0.0,-0.33,-0.15,-1.77726255173e-10,0.0,0.0,0.0,0.0,0.0,0.0,17.7688577091,10.0454025388,62.2645182897,0.131173885067,-0.715200274492,50.2617500354,-0.977862557997,-3.77669671276,51.9631077214,24.2019470964,15.155974089,114.755195717,1,1,1,1
167501000,167500000,0.00324428023975,0.00113720105675,0.464886344891,-0.00226562001839,0.00105108773023,0.00399771082991,0.999988890183,0.0735955207276,0.0310078117072,-0.0401856273696,-0.0539383955509,0.116840605141,0.0941882336859,1.24863866572,0.624327907256,0.747687658852,-0.00145850778358,3.28888273662,-0.0416873495217,0.33,0.15,-1.08191067621e-10,0.0,0.0,0.0,0.0,0.0,0.0,0.33,-0.15,8.79292523218e-12,0.0,0.0,0.0,0.0,0.0,0.0,-0.33,0.15,5.60163493609e-11,0.0,0.0,0.0,0.0,0.0,0.0,-0.33,-0.15,-1.77726255173e-10,0.0,0.0,0.0,0.0,0.0,0.0,17.334383284,9.76990563084,62.3443455415,0.127781092461,-0.671360239602,50.3673248387,-1.01372046994,-3.8143666537,52.0741873905,25.6843460111,16.0461192001,116.595850403,1,1,1,1
170001000,170000000,0.00343220783121,0.00121669325675,0.464788286652,-0.00233254862216,0.00120234884565,0.00411562385088,0.999988087536,0.0767613214698,0.032594642083,-0.038233070945,-0.053906866074,0.125231624518,0.0940173555435,1.28408432638,0.645192995178,0.814630930596,0.0268152784171,3.42436040262,-0.0952786397769,0.33,0.15,-1.08191067621e-10,0.0,0.0,0.0,0.0,0.0,0.0,0.33,-0.15,8.79292523218e-12,0.0,0.0,0.0,0.0,0.0,0.0,-0.33,0.15,5.60163493609e-11,0.0,0.0,0.0,0.0,0.0,0.0,-0.33,-0.15,-1.77726255173e-10,0.0,0.0,0.0,0.0,0.0,0.0,16.8386193669,9.45645751834,62.4286174171,0.123885075136,-0.627484943696,50.473444037,-1.04896516557,-3.84919690782,52.1858583628,27.1424377559,16.9235452323,118.406260592,1,1,1,1
172501000,172500000,0.00362816120721,0.00130021808985,0.46469532071,-0.00239934870472,0.00136431192621,0.00423326361131,0.999987230547,0.0800163543512,0.0342340596919,-0.0361111054677,-0.0538036518831,0.133964545703,0.0937105210437,1.32002437712,0.666397693716,0.883214901,0.0558898169801,3.56240432352,-0.150453277488,0.33,0.15,-1.08191067621e-10,0.0,0.0,0.0,0.0,0.0,0.0,0.33,-0.15,8.79292523218e-12,0.0,0.0,0.0,0.0,0.0,0.0,-0.33,0.15,5.60163493609e-11,0.0,0.0,0.0,0.0,0.0,0.0,-0.33,-0.15,-1.77726255173e-10,0.0,0.0,0.0,0.0,0.0,0.0,16.2841757506,9.10671895834,62.5171168974,0.119474460737,-0.583591951789,50.5799643851,-1.08355974594,-3.88108366437,52.2980061614,28.5694345884,17.7842785176,120.178101978,1,1,1,1
175001000,175000000,0.00383236499306,0.00138790808543,0.464607875717,-0.00246592602807,0.00153740837215,0.00435045955979,0.999986314449,0.0833618553471,0.0359269135604,-0.0338156291911,-0.0536267466718,0.143045785338,0.0932637653061,1.35645881794,0.687942002871,0.953439570065,0.0857687590436,3.70301528379,-0.207216551331,0.33,0.15,-1.08191067621e-10,0.0,0.0,0.0,0.0,0.0,0.0,0.33,-0.15,8.79292523218e-12,0.0,0.0,0.0,0.0,0.0,0.0,-0.33,0.15,5.60163493609e-11,0.0,0.0,0.0,0.0,0.0,0.0,-0.33,-0.15,-1.77726255173e-10,0.0,0.0,0.0,0.0,0.0,0.0,15.6736622279,8.72235070787,62.609626963,0.114537876911,-0.539698828897,50.6867426377,-1.11746731209,-3.90992311262,52.4105163095,29.9585487662,18.624345388,121.903050256,1,1,1,1
177501000,177500000,0.00404504690402,0.0014798978954,0.464526390575,-0.00253218363727,0.00172207760487,0.00446703628948,0.999985333933,0.0867990604327,0.0376740527151,-0.0313425403685,-0.05337413416,0.152481761883,0.0926731096243,1.39338764884,0.709825922641,1.02530493779,0.11645643865,3.84619395237,-0.265574237468,0.33,0.15,-1.08191067621e-10,0.0,0.0,0.0,0.0,0.0,0.0,0.33,-0.15,8.79292523218e-12,0.0,0.0,0.0,0.0,0.0,0.0,-0.33,0.15,5.60163493609e-11,0.0,0.0,0.0,0.0,0.0,0.0,-0.33,-0.15,-1.77726255173e-10,0.0,0.0,0.0,0.0,0.0,0.0,15.0096885916,8.30501352398,62.7059305946,0.109063951305,-0.495823140035,50.7936355493,-1.15065096508,-3.93561144184,52.5232743302,31.3029925467,19.4397721755,123.57278112,1,1,1,1
180001000,180000000,0.00426643774528,0.00157632429426,0.464451314443,-0.00259802183772,0.00191876706858,0.0045828135247,0.999984283094,0.0903292055831,0.0394763261825,-0.0286877372533,-0.0530437863399,0.162278895313,0.0919345602175,1.43081086981,0.732049453027,1.09881100417,0.14795790994,3.99194087252,-0.325532622975,0.33,0.15,-1.08191067621e-10,0.0,0.0,0.0,0.0,0.0,0.0,0.33,-0.15,8.79292523218e-12,0.0,0.0,0.0,0.0,0.0,0.0,-0.33,0.15,5.60163493609e-11,0.0,0.0,0.0,0.0,0.0,0.0,-0.33,-0.15,-1.77726255173e-10,0.0,0.0,0.0,0.0,0.0,0.0,14.2948646347,7.85636816368,62.8058107731,0.103041311564,-0.451982450218,50.9004998748,-1.18307380598,-3.95804484129,52.6361657465,32.5959781877,20.226585212,125.178970266,1,1,1,1
182501000,182500000,0.00449677141197,0.00167732617909,0.464383106735,-0.00266333816995,0.00212793223143,0.00469760610589,0.999983155374,0.0939535267735,0.0413345829891,-0.0258471180988,-0.0526336616293,0.172443606798,0.0910441069239,1.46872848087,0.75461259403,1.17395776922,0.180278984982,4.14025645154,-0.387098529767,0.33,0.15,-1.08191067621e-10,0.0,0.0,0.0,0.0,0.0,0.0,0.33,-0.15,8.79292523218e-12,0.0,0.0,0.0,0.0,0.0,0.0,-0.33,0.15,5.60163493609e-11,0.0,0.0,0.0,0.0,0.0,0.0,-0.33,-0.15,-1.77726255173e-10,0.0,0.0,0.0,0.0,0.0,0.0,13.5318001499,7.37807538402,62.909050479,0.0964585853352,-0.408194324463,51.0071923688,-1.21469893582,-3.97711950024,52.7490760817,33.8307179465,20.9808108295,126.713293388,1,1,1,1
185001000,185000000,0.00473628488916,0.00178304456951,0.464322237118,-0.00272802738164,0.00235003658613,0.00481122397315,0.999981943496,0.0976732599791,0.0432496721615,-0.0228165811583,-0.0521417029281,0.182982318342,0.0899977218329,1.507140482,0.777515345648,1.25074523293,0.213426272197,4.29114095004,-0.450279339012,0.33,0.15,-1.08191067621e-10,0.0,0.0,0.0,0.0,0.0,0.0,0.33,-0.15,8.79292523218e-12,0.0,0.0,0.0,0.0,0.0,0.0,-0.33,0.15,5.60163493609e-11,0.0,0.0,0.0,0.0,0.0,0.0,-0.33,-0.15,-1.77726255173e-10,0.0,0.0,0.0,0.0,0.0,0.0,12.72310493,6.87179594202,63.0154326932,0.0893044002649,-0.364476327783,51.113569786,-1.24548945568,-3.99273160796,52.8618908588,35.0004240809,21.69847536,128.16742618,1,1,1,1
187501000,187500000,0.00498521825186,0.00189362260772,0.464269185512,-0.00279198139695,0.00258555164996,0.00492347214805,0.999980639405,0.101489641175,0.0452224427262,-0.0195920246853,-0.0515658355793,0.193901452405,0.088791357856,1.54604687321,0.800757707883,1.32917339529,0.247407215358,4.44459447098,-0.515083016028,0.33,0.15,-1.08191067621e-10,0.0,0.0,0.0,0.0,0.0,0.0,0.33,-0.15,8.79292523218e-12,0.0,0.0,0.0,0.0,0.0,0.0,-0.33,0.15,5.60163493609e-11,0.0,0.0,0.0,0.0,0.0,0.0,-0.33,-0.15,-1.77726255173e-10,0.0,0.0,0.0,0.0,0.0,0.0,11.871388768,6.33919059472,63.1247403964,0.0815673839994,-0.320846025196,51.219488881,-1.2754084666,-4.00477735371,52.974495601,36.0983088484,22.3756051355,129.533044337,1,1,1,1
190001000,190000000,0.00524381466501,0.00200920555849,0.464224442095,-0.0028550892829,0.00283495696418,0.00503415071389,0.99997923419,0.105403906337,0.0472537437098,-0.016169346933,-0.0509039652312,0.205207431499,0.0874209472348,1.5854476545,0.824339680734,1.40924225632,0.28223013314,4.60061694832,-0.581518135684,0.33,0.15,-1.08191067621e-10,0.0,0.0,0.0,0.0,0.0,0.0,0.33,-0.15,8.79292523218e-12,0.0,0.0,0.0,0.0,0.0,0.0,-0.33,0.15,5.60163493609e-11,0.0,0.0,0.0,0.0,0.0,0.0,-0.33,-0.15,-1.77726255173e-10,0.0,0.0,0.0,0.0,0.0,0.0,10.9792614565,5.78192009914,63.2367565693,0.0732361641851,-0.277320981715,51.3248064085,-1.30441906963,-4.01315292676,53.0867758314,37.1175845065,23.0082264879,130.801823554,1,1,1,1
192501000,192500000,0.00551232038349,0.00212994080914,0.464188507297,-0.00291723721261,0.00309874009279,0.00514305479407,0.999977718014,0.109417291439,0.0493444241387,-0.0125444461548,-0.0501539755999,0.216906677744,0.0858823999851,1.62534282587,0.848261264201,1.490951816,0.31790425917,4.75920813537,-0.649593908268,0.33,0.15,-1.08191067621e-10,0.0,0.0,0.0,0.0,0.0,0.0,0.33,-0.15,8.79292523218e-12,0.0,0.0,0.0,0.0,0.0,0.0,-0.33,0.15,5.60163493609e-11,0.0,0.0,0.0,0.0,0.0,0.0,-0.33,-0.15,-1.77726255173e-10,0.0,0.0,0.0,0.0,0.0,0.0,10.0493327886,5.20164521232,63.3512641926,0.0642993684684,-0.233918762356,51.4293791233,-1.33248436583,-4.01775451636,53.1986170732,38.0514633129,23.5923657493,131.965439526,1,1,1,1
195001000,195000000,0.00579098475214,0.00225597786958,0.464161891802,-0.00297830842547,0.00337739662047,0.00524997452872,0.999976080033,0.113531032458,0.0514953330396,-0.00871322060408,-0.0493137261318,0.229005612406,0.0841716022751,1.66573238731,0.872522458283,1.57430207435,0.354439782564,4.92036759271,-0.719320205861,0.33,0.15,-1.08191067621e-10,0.0,0.0,0.0,0.0,0.0,0.0,0.33,-0.15,8.79292523218e-12,0.0,0.0,0.0,0.0,0.0,0.0,-0.33,0.15,5.60163493609e-11,0.0,0.0,0.0,0.0,0.0,0.0,-0.33,-0.15,-1.77726255173e-10,0.0,0.0,0.0,0.0,0.0,0.0,9.08421255697,4.60002669129,63.4680462471,0.0547456244958,-0.190656932135,51.5330637799,-1.35956745626,-4.0184783118,53.3099048494,38.893157525,24.1240492515,133.015567947,1,1,1,1
197501000,197500000,0.00608006020569,0.00238746837226,0.464145116549,-0.00303818318387,0.00367143014985,0.0053546950494,0.999974308312,0.117746365368,0.053707319439,-0.00467156853417,-0.0483810495635,0.241510655401,0.0822844147376,1.70661633884,0.897123262982,1.65929303136,0.391847888897,5.08409467583,-0.790707589178,0.33,0.15,-1.08191067621e-10,0.0,0.0,0.0,0.0,0.0,0.0,0.33,-0.15,8.79292523218e-12,0.0,0.0,0.0,0.0,0.0,0.0,-0.33,0.15,5.60163493609e-11,0.0,0.0,0.0,0.0,0.0,0.0,-0.33,-0.15,-1.77726255173e-10,0.0,0.0,0.0,0.0,0.0,0.0,8.08651055448,3.97872529308,63.5868857134,0.0445635599135,-0.147553056067,51.6357171331,-1.38563144197,-4.01522050233,53.4205246831,39.6358794005,24.5993033267,133.943884511,1,1,1,1
200001000,200000000,0.00637980226886,0.00252456607221,0.464138712733,-0.00309673872655,0.00398135229779,0.00545699645182,0.999972389735,0.122064526144,0.0559812323634,-0.000415388198414,-0.0473537493787,0.254428224761,0.0802166707145,1.74799468044,0.922063678298,1.74592468702,0.430140801578,5.25038852228,-0.863767334899,0.33,0.15,-1.08191067621e-10,0.0,0.0,0.0,0.0,0.0,0.0,0.33,-0.15,8.79292523218e-12,0.0,0.0,0.0,0.0,0.0,0.0,-0.33,0.15,5.60163493609e-11,0.0,0.0,0.0,0.0,0.0,0.0,-0.33,-0.15,-1.77726255173e-10,0.0,0.0,0.0,0.0,0.0,0.0,7.05883657398,3.33940177473,63.7075655724,0.0337418023681,-0.104624699168,51.7371959375,-1.41063942401,-4.00787727723,53.5303620976,40.2728411969,25.0141543067,134.742064914,1,1,1,1
202501000,202500000,0.0066903180424,0.00266732749441,0.464143016157,-0.00315392065348,0.00430739073367,0.00555668497267,0.99997031077,0.126303782076,0.0582045870095,0.0038127415206,-0.0463966195721,0.267063792545,0.0780420818187,1.64385098178,0.856829528133,1.63709288849,0.33612604556,4.85923244506,-0.875800997066,0.33,0.15,-1.08191067621e-10,0.0,0.0,0.0,0.0,0.0,0.0,0.33,-0.15,8.79292523218e-12,0.0,0.0,0.0,0.0,0.0,0.0,-0.33,0.15,5.60163493609e-11,0.0,0.0,0.0,0.0,0.0,0.0,-0.33,-0.15,-1.77726255173e-10,0.0,0.0,0.0,0.0,0.0,0.0,6.00380040829,2.68371689326,63.8298688048,0.0222689795058,-0.0618894264514,51.8373569479,-1.43455450345,-3.99634482575,53.639302616,40.7972551717,25.3646285235,135.40178485,1,1,1,1
205001000,205000000,0.00701110811555,0.00281544957838,0.464157552969,-0.0032099547954,0.00464861789897,0.00565368851986,0.999968060664,0.130285985453,0.0602664200218,0.00777264574365,-0.0456703113117,0.27873022289,0.0758381857127,1.54235260742,0.792845182451,1.53134436995,0.24548072345,4.47507945879,-0.887210804213,0.33,0.15,-1.08191067621e-10,0.0,0.0,0.0,0.0,0.0,0.0,0.33,-0.15,8.79292523218e-12,0.0,0.0,0.0,0.0,0.0,0.0,-0.33,0.15,5.60163493609e-11,0.0,0.0,0.0,0.0,0.0,0.0,-0.33,-0.15,-1.77726255173e-10,0.0,0.0,0.0,0.0,0.0,0.0,4.92401185025,2.01333140571,63.9535783912,0.0101337189731,-0.0193648029343,51.9360569188,-1.45733978132,-3.98051933716,53.7472317613,41.2023335826,25.6467523091,135.914720014,1,1,1,1
207501000,207500000,0.00734153927026,0.00296852759568,0.464181662288,-0.0032651285867,0.00500383500633,0.00574796747082,0.99996563013,0.13401774955,0.0621698544254,0.0114720327703,-0.0451664222022,0.289445030175,0.0736065578505,1.44349955734,0.7301106412,1.42867913138,0.158187905801,4.09793487201,-0.89798465238,0.33,0.15,-1.08191067621e-10,0.0,0.0,0.0,0.0,0.0,0.0,0.33,-0.15,8.79292523218e-12,0.0,0.0,0.0,0.0,0.0,0.0,-0.33,0.15,5.60163493609e-11,0.0,0.0,0.0,0.0,0.0,0.0,-0.33,-0.15,-1.77726255173e-10,0.0,0.0,0.0,0.0,0.0,0.0,3.8220806927,1.32990606911,64.0784773124,-0.00267535158365,0.0229316063686,52.033152605,-1.4789583587,-3.96029700073,53.8540350566,41.4812886872,25.8565519955,136.272546101,1,1,1,1
210001000,210000000,0.00768099367499,0.00312616945542,0.464214702458,-0.00331971907955,0.00537186515296,0.00583948393533,0.999963010795,0.137505687677,0.0639180147315,0.0149186108005,-0.0448765921064,0.299225741914,0.0713487999717,1.34729183154,0.668625904381,1.3290971728,0.0742307018253,3.72780387669,-0.908113573055,0.33,0.15,-1.08191067621e-10,0.0,0.0,0.0,0.0,0.0,0.0,0.33,-0.15,8.79292523218e-12,0.0,0.0,0.0,0.0,0.0,0.0,-0.33,0.15,5.60163493609e-11,0.0,0.0,0.0,0.0,0.0,0.0,-0.33,-0.15,-1.77726255173e-10,0.0,0.0,0.0,0.0,0.0,0.0,2.70061672847,0.635101640481,64.2043485492,-0.0161696045181,0.0649822364418,52.1285007612,-1.49937333662,-3.93557400572,53.9595980252,41.6273327429,25.9900539147,136.466938804,1,1,1,1
212501000,212500000,0.00802887003143,0.00328799087801,0.464256051092,-0.003373992979,0.00575155333706,0.00592820184093,0.999960195322,0.140756413145,0.065514025451,0.0181200880343,-0.0447925030413,0.308089898445,0.069066532534,1.25372943003,0.608390971993,1.23259849419,-0.00640771713784,3.36469153985,-0.917591526166,0.33,0.15,-1.08191067621e-10,0.0,0.0,0.0,0.0,0.0,0.0,0.33,-0.15,8.79292523218e-12,0.0,0.0,0.0,0.0,0.0,0.0,-0.33,0.15,5.60163493609e-11,0.0,0.0,0.0,0.0,0.0,0.0,-0.33,-0.15,-1.77726255173e-10,0.0,0.0,0.0,0.0,0.0,0.0,1.5622297504,-0.0694211231312,64.3309750822,-0.0303604121837,0.10676952227,52.2219581421,-1.51854781616,-3.90624654141,54.0638061902,41.6341655787,26.042785938,136.47102942,1,1,1,1
215001000,215000000,0.00838458357459,0.00345361539512,0.464305105071,-0.00342820668491,0.0061417664705,0.00601408696214,0.999957177514,0.143776539264,0.0669610110951,0.0210841726715,-0.0449058789941,0.316055052611,0.0667613876456,1.1628123528,0.549405844037,1.13918309557,-0.083744095006,3.00860279555,-0.926415197868,0.33,0.15,-1.08191067621e-10,0.0,0.0,0.0,0.0,0.0,0.0,0.33,-0.15,8.79292523218e-12,0.0,0.0,0.0,0.0,0.0,0.0,-0.33,0.15,5.60163493609e-11,0.0,0.0,0.0,0.0,0.0,0.0,-0.33,-0.15,-1.77726255173e-10,0.0,0.0,0.0,0.0,0.0,0.0,0.409529551321,-0.782001464701,64.4581398922,-0.0452591469343,0.148275898838,52.3133815022,-1.53644489835,-3.87221079705,54.1665450746,41.5044737395,26.0078937903,136.083299367,1,1,1,1
217501000,217500000,0.00874756607272,0.00362267434968,0.464361280551,-0.00348260633395,0.00654139339126,0.0060971069415,0.999953952396,0.146572679346,0.0682620961749,0.0238185729121,-0.0452084856836,0.323138769415,0.0644350024982,1.07454059985,0.491670520512,1.04885097693,-0.157795069437,2.65954243729,-0.934583803123,0.33,0.15,-1.08191067621e-10,0.0,0.0,0.0,0.0,0.0,0.0,0.33,-0.15,8.79292523218e-12,0.0,0.0,0.0,0.0,0.0,0.0,-0.33,0.15,5.60163493609e-11,0.0,0.0,0.0,0.0,0.0,0.0,-0.33,-0.15,-1.77726255173e-10,0.0,0.0,0.0,0.0,0.0,0.0,-0.754874075926,-1.5009786272,64.58562596,-0.0608771811233,0.18948380113,52.4026275964,-1.55302768426,-3.83336296191,54.2677002016,41.2453779744,25.8875968465,135.267794351,1,1,1,1
220001000,220000000,0.00911726582738,0.00379480689595,0.464424012956,-0.00353742784158,0.00694934487582,0.00617723130314,0.999950516287,0.1491514467,0.0694204052014,0.0263309969561,-0.0456921302682,0.329358625661,0.0620890132858,0.988914171191,0.435185001419,0.961602138267,-0.228577151197,2.3175151108,-0.942098893073,0.33,0.15,-1.08191067621e-10,0.0,0.0,0.0,0.0,0.0,0.0,0.33,-0.15,8.79292523218e-12,0.0,0.0,0.0,0.0,0.0,0.0,-0.33,0.15,5.60163493609e-11,0.0,0.0,0.0,0.0,0.0,0.0,-0.33,-0.15,-1.77726255173e-10,0.0,0.0,0.0,0.0,0.0,0.0,-1.92837133851,-2.22469185358,64.7132162662,-0.0772258871044,0.230375664131,52.4895531792,-1.56812296863,-3.78962450895,54.3677253754,40.8634314055,25.6861595946,134.046128349,1,1,1,1
222501000,222500000,0.00949314767338,0.00396965999941,0.464492756979,-0.00359289694401,0.00736455365136,0.00625443145943,0.999946866853,0.151519454639,0.0704390626857,0.0286291530035,-0.0463486610036,0.334732209576,0.0597250496006,0.905933066813,0.379949286758,0.877436579585,-0.296106704231,1.98252530721,-0.948964167217,0.33,0.15,-1.08191067621e-10,0.0,0.0,0.0,0.0,0.0,0.0,0.33,-0.15,8.79292523218e-12,0.0,0.0,0.0,0.0,0.0,0.0,-0.33,0.15,5.60163493609e-11,0.0,0.0,0.0,0.0,0.0,0.0,-0.33,-0.15,-1.77726255173e-10,0.0,0.0,0.0,0.0,0.0,0.0,-3.10835244359,-2.95148038683,64.8406937916,-0.0888119401397,0.269846893589,52.5888458123,-1.56792821929,-3.74349601456,54.5239903322,40.3651871548,25.4078465226,132.439915334,1,1,1,1
225001000,225000000,0.00987469297882,0.00414688843685,0.464566986588,-0.00364922923997,0.00778597440761,0.00632868071114,0.99994300314,0.153683316471,0.0713211931389,0.030720749254,-0.047169966852,0.339277120413,0.0573447292918,0.825597286719,0.325963376528,0.796354300884,-0.360399926252,1.65457735663,-0.95518529037,0.33,0.15,-1.08191067621e-10,0.0,0.0,0.0,0.0,0.0,0.0,0.33,-0.15,8.79292523218e-12,0.0,0.0,0.0,0.0,0.0,0.0,-0.33,0.15,5.60163493609e-11,0.0,0.0,0.0,0.0,0.0,0.0,-0.33,-0.15,-1.77726255173e-10,0.0,0.0,0.0,0.0,0.0,0.0,-4.29220759834,-3.67968346991,64.9678415169,-0.0777251222138,0.304352376365,52.7487050167,-1.54366667118,-3.69671087698,54.7732136105,39.7571983442,25.0569221184,130.470769282,1,1,1,1
227501000,227500000,0.0102613996451,0.00432615479633,0.464646195016,-0.00370663023228,0.00821258380855,0.00639995424178,0.999938925608,0.155649645509,0.072069921072,0.0326134939079,-0.0481479770418,0.343010968044,0.0549496537761,0.74790683091,0.27322727073,0.718355302163,-0.42147282974,1.33367542212,-0.960769714436,0.33,0.15,-1.08191067621e-10,0.0,0.0,0.0,0.0,0.0,0.0,0.33,-0.15,8.79292523218e-12,0.0,0.0,0.0,0.0,0.0,0.0,-0.33,0.15,5.60163493609e-11,0.0,0.0,0.0,0.0,0.0,0.0,-0.33,-0.15,-1.77726255173e-10,0.0,0.0,0.0,0.0,0.0,0.0,-5.47732700991,-4.40764034579,65.0944424229,-0.0430686314907,0.33371966865,52.9715584424,-1.49589892909,-3.64930350116,55.113245269,39.0460180958,24.63765087,128.160304167,1,1,1,1
230001000,230000000,0.0106527821068,0.0045071294772,0.464729894771,-0.00376529536911,0.00864338050359,0.00646822910665,0.999934636132,0.157425055063,0.0726883709962,0.0343150951648,-0.0492746605818,0.345951372534,0.0525414037877,0.672861699384,0.221740969363,0.643439583423,-0.479341223201,1.01982349405,-0.96572650497,0.33,0.15,-1.08191067621e-10,0.0,0.0,0.0,0.0,0.0,0.0,0.33,-0.15,8.79292523218e-12,0.0,0.0,0.0,0.0,0.0,0.0,-0.33,0.15,5.60163493609e-11,0.0,0.0,0.0,0.0,0.0,0.0,-0.33,-0.15,-1.77726255173e-10,0.0,0.0,0.0,0.0,0.0,0.0,-6.66110088547,-5.13369025744,65.2202794902,0.0146121084219,0.358061601415,53.2559504871,-1.42518559782,-3.60130829203,55.5419353665,38.2381995315,24.1542972655,125.530133964,1,1,1,1
232501000,232500000,0.0110483713319,0.00468949069007,0.464817617629,-0.00382541008487,0.00907738513852,0.00653348421698,0.99993013801,0.159016158443,0.0731796674225,0.035833261225,-0.0505420257278,0.348115963701,0.050121535556,0.600461892142,0.171504472427,0.571607144663,-0.534020692609,0.713025384813,-0.970066172553,0.33,0.15,-1.08191067621e-10,0.0,0.0,0.0,0.0,0.0,0.0,0.33,-0.15,8.79292523218e-12,0.0,0.0,0.0,0.0,0.0,0.0,-0.33,0.15,5.60163493609e-11,0.0,0.0,0.0,0.0,0.0,0.0,-0.33,-0.15,-1.77726255173e-10,0.0,0.0,0.0,0.0,0.0,0.0,-7.8409194322,-5.85617244782,65.3451356996,0.0947716739159,0.37749100563,53.6004255486,-1.33208728216,-3.55275965454,56.0571339614,37.3402957734,23.6111257927,122.601872648,1,1,1,1
235001000,235000000,0.0114477148216,0.00487292445682,0.464908914638,-0.00388714984067,0.00951364036591,0.0065957003198,0.999925435945,0.16042956896,0.073546934862,0.0371757002881,-0.0519421194029,0.34952238067,0.0476915773987,0.530707409183,0.122517779924,0.502857985884,-0.58552658295,0.413284723997,-0.973800508965,0.33,0.15,-1.08191067621e-10,0.0,0.0,0.0,0.0,0.0,0.0,0.33,-0.15,8.79292523218e-12,0.0,0.0,0.0,0.0,0.0,0.0,-0.33,0.15,5.60163493609e-11,0.0,0.0,0.0,0.0,0.0,0.0,-0.33,-0.15,-1.77726255173e-10,0.0,0.0,0.0,0.0,0.0,0.0,-9.01417285724,-6.5734261599,65.4687940319,0.196864641384,0.392120712264,54.0035280246,-1.21716458691,-3.50369199363,56.6566911127,36.3588599434,23.0124009398,119.397134193,1,1,1,1
237501000,237500000,0.0118503766104,0.00505712461065,0.465003356115,-0.00395068016426,0.00995121085506,0.00665485997395,0.999920536026,0.161671899926,0.0737932978258,0.0383501205544,-0.0534670265723,0.350188271402,0.045253026719,0.463598250509,0.0747808918517,0.437192107086,-0.633873979815,0.120604953862,-0.976942428175,0.33,0.15,-1.08191067621e-10,0.0,0.0,0.0,0.0,0.0,0.0,0.33,-0.15,8.79292523218e-12,0.0,0.0,0.0,0.0,0.0,0.0,-0.33,0.15,5.60163493609e-11,0.0,0.0,0.0,0.0,0.0,0.0,-0.33,-0.15,-1.77726255173e-10,0.0,0.0,0.0,0.0,0.0,0.0,-10.1782513678,-7.28379063666,65.5910374677,0.320345587217,0.402063552287,54.4638023129,-1.08097811687,-3.45413971426,57.3384568788,35.3004451635,22.3623871945,115.937532575,1,1,1,1
240001000,240000000,0.012255937266,0.00524179279598,0.465100531648,-0.00401615668942,0.0103891833015,0.0067109475227,0.999915445695,0.16274976465,0.073921880825,0.0393642302236,-0.0551088695721,0.350131292229,0.0428073473933,0.399134416119,0.0282938082112,0.374609508268,-0.679077690988,-0.165010674753,-0.979505812142,0.33,0.15,-1.08191067621e-10,0.0,0.0,0.0,0.0,0.0,0.0,0.33,-0.15,8.79292523218e-12,0.0,0.0,0.0,0.0,0.0,0.0,-0.33,0.15,5.60163493609e-11,0.0,0.0,0.0,0.0,0.0,0.0,-0.33,-0.15,-1.77726255173e-10,0.0,0.0,0.0,0.0,0.0,0.0,-11.3305451709,-7.98560512106,65.7116489878,0.464669087808,0.407432356669,54.9797928111,-0.924088476838,-3.40413722135,58.1002813186,34.1716045557,21.6653490451,112.244681767,1,1,1,1
242501000,242500000,0.0126639938896,0.00542663846856,0.465200050097,-0.00408372519472,0.0108266664357,0.00676394906351,0.999910173703,0.163669776443,0.0739358083706,0.0402257374957,-0.0568598073909,0.349369107365,0.0403559675392,0.337315906012,-0.0169434709978,0.31511018943,-0.721152228014,-0.443559106163,-0.98150536144,0.33,0.15,-1.08191067621e-10,0.0,0.0,0.0,0.0,0.0,0.0,0.33,-0.15,8.79292523218e-12,0.0,0.0,0.0,0.0,0.0,0.0,-0.33,0.15,5.60163493609e-11,0.0,0.0,0.0,0.0,0.0,0.0,-0.33,-0.15,-1.77726255173e-10,0.0,0.0,0.0,0.0,0.0,0.0,-12.4684444739,-8.67720885606,65.8304115729,0.629289719549,0.408339956379,55.5500439172,-0.747056271608,-3.35371891986,58.9400144907,32.978891242,20.9255509793,108.340195746,1,1,1,1
245001000,245000000,0.0130741601152,0.00561137889538,0.465301539591,-0.00415352164153,0.0112627910316,0.00681385241524,0.999904730068,0.164438548617,0.0738382049737,0.0409423505707,-0.058712034907,0.347919388416,0.0379002776509,0.278142720189,-0.0609309457752,0.258694150573,-0.760111787745,-0.715037483189,-0.982956450691,0.33,0.15,-1.08191067621e-10,0.0,0.0,0.0,0.0,0.0,0.0,0.33,-0.15,8.79292523218e-12,0.0,0.0,0.0,0.0,0.0,0.0,-0.33,0.15,5.60163493609e-11,0.0,0.0,0.0,0.0,0.0,0.0,-0.33,-0.15,-1.77726255173e-10,0.0,0.0,0.0,0.0,0.0,0.0,-13.5893394839,-9.35694108465,65.9471082037,0.813662058832,0.404899182388,56.1731000288,-0.550442105977,-3.30291921473,59.8555064537,31.7288583445,20.1472574853,104.245688484,1,1,1,1
247501000,247500000,0.0134860661107,0.00579573915474,0.465404647529,-0.00422567221129,0.0116967099141,0.00686064708342,0.999899126009,0.165062694481,0.0736321951454,0.0415217776485,-0.060657782078,0.34579981388,0.0354416290894,0.22161485865,-0.103668616121,0.205361391696,-0.795970233847,-0.979443150142,-0.983874988844,0.33,0.15,-1.08191067621e-10,0.0,0.0,0.0,0.0,0.0,0.0,0.33,-0.15,8.79292523218e-12,0.0,0.0,0.0,0.0,0.0,0.0,-0.33,0.15,5.60163493609e-11,0.0,0.0,0.0,0.0,0.0,0.0,-0.33,-0.15,-1.77726255173e-10,0.0,0.0,0.0,0.0,0.0,0.0,-14.690620408,-10.0231410498,66.0615218611,1.01724068205,0.397222865665,56.8475055436,-0.334806584743,-3.25177251089,60.8446072664,30.4280589851,19.3347330509,99.9827739583,1,1,1,1
250001000,250000000,0.0138993585768,0.00597945213618,0.465509040581,-0.00430029334201,0.0121275979661,0.00690432422381,0.999893373891,0.165548827347,0.0733209033968,0.0419717269292,-0.0626893130851,0.343028068639,0.0329813329165,0.167732321395,-0.145156482035,0.1551119128,-0.828741078294,-1.23677365543,-0.984277284261,0.33,0.15,-1.08191067621e-10,0.0,0.0,0.0,0.0,0.0,0.0,0.33,-0.15,8.79292523218e-12,0.0,0.0,0.0,0.0,0.0,0.0,-0.33,0.15,5.60163493609e-11,0.0,0.0,0.0,0.0,0.0,0.0,-0.33,-0.15,-1.77726255173e-10,0.0,0.0,0.0,0.0,0.0,0.0,-15.7696774534,-10.6741479944,66.1734355256,1.23948016559,0.38542383718,57.5718048594,-0.100710312703,-3.20031321331,61.9051669875,29.0830462857,18.4922421642,95.5730661422,1,1,1,1
252501000,252500000,0.0143137007477,0.00616225854055,0.465614404689,-0.00437749176378,0.0125546521349,0.00694487660477,0.999887487153,0.165903560525,0.0729074542389,0.0422999066125,-0.0647989254304,0.339621843447,0.0305206590596,0.116495108424,-0.185394543518,0.107945713885,-0.858437462886,-1.48702675383,-0.984179914656,0.33,0.15,-1.08191067621e-10,0.0,0.0,0.0,0.0,0.0,0.0,0.33,-0.15,8.79292523218e-12,0.0,0.0,0.0,0.0,0.0,0.0,-0.33,0.15,5.60163493609e-11,0.0,0.0,0.0,0.0,0.0,0.0,-0.33,-0.15,-1.77726255173e-10,0.0,0.0,0.0,0.0,0.0,0.0,-16.8239008273,-11.3083011615,66.2826321781,1.47983508586,0.369614927902,58.344542374,0.151286105347,-3.14857572691,63.0350356756,27.7003733684,17.6240493132,91.0381790108,1,1,1,1
255001000,255000000,0.0147287723908,0.00634390687996,0.465720445063,-0.00445736453342,0.012977091438,0.00698229856882,0.999881480229,0.166133507326,0.0723949721829,0.0425140248986,-0.0669789489886,0.335598834412,0.0280608357965,0.0679032197368,-0.224382800569,0.0638627949494,-0.885072140807,-1.73020040832,-0.983599601851,0.33,0.15,-1.08191067621e-10,0.0,0.0,0.0,0.0,0.0,0.0,0.33,-0.15,8.79292523218e-12,0.0,0.0,0.0,0.0,0.0,0.0,-0.33,0.15,5.60163493609e-11,0.0,0.0,0.0,0.0,0.0,0.0,-0.33,-0.15,-1.77726255173e-10,0.0,0.0,0.0,0.0,0.0,0.0,-17.8506807369,-11.9239397941,66.3888947992,1.73776001923,0.349908968802,59.1642624851,0.420622064608,-3.09659445665,64.2320633894,26.2865933553,16.7344189857,86.3997265389,1,1,1,1
257501000,257500000,0.0151442698068,0.0065241534778,0.465826886185,-0.00453999906809,0.0133941569678,0.00701658599372,0.999875368478,0.16624528106,0.0717865817398,0.0426217899872,-0.0692217450126,0.330976742471,0.0256030495459,0.0219566553333,-0.262121253189,0.0228631559948,-0.908657458281,-1.96629279168,-0.982553091381,0.33,0.15,-1.08191067621e-10,0.0,0.0,0.0,0.0,0.0,0.0,0.33,-0.15,8.79292523218e-12,0.0,0.0,0.0,0.0,0.0,0.0,-0.33,0.15,5.60163493609e-11,0.0,0.0,0.0,0.0,0.0,0.0,-0.33,-0.15,-1.77726255173e-10,0.0,0.0,0.0,0.0,0.0,0.0,-18.8474073892,-12.5194031351,66.4920063698,2.0127095421,0.32641879085,60.0295095905,0.706736960286,-3.04440380746,65.4941001875,24.8482593682,15.8276156699,81.6793227012,1,1,1,1
260001000,260000000,0.0155599058296,0.00670276246876,0.465933471809,-0.00462547317782,0.0138051118959,0.0070477362534,0.99986916809,0.166245495039,0.0710854074206,0.0426309100785,-0.0715197050929,0.325773272866,0.0231484449539,-0.0213445847862,-0.298609901377,-0.0150532029793,-0.929205336375,-2.19530228761,-0.981057036932,0.33,0.15,-1.08191067621e-10,0.0,0.0,0.0,0.0,0.0,0.0,0.33,-0.15,8.79292523218e-12,0.0,0.0,0.0,0.0,0.0,0.0,-0.33,0.15,5.60163493609e-11,0.0,0.0,0.0,0.0,0.0,0.0,-0.33,-0.15,-1.77726255173e-10,0.0,0.0,0.0,0.0,0.0,0.0,-19.8114709915,-13.0930304275,66.5917498704,2.30413823087,0.299257225014,60.9388280878,1.00907018758,-2.9920381843,66.8189961288,23.3919245292,14.9079038537,76.8985814725,1,1,1,1
262501000,262500000,0.0159754098266,0.00687950579877,0.466039964955,-0.004713855097,0.0142092414772,0.00707574817924,0.999862896008,0.166140762573,0.0702945737366,0.0425490933723,-0.0738652500727,0.320006134615,0.0206981252633,-0.0620005006219,-0.333848745133,-0.0498862819729,-0.946727253018,-2.41722749159,-0.979127889625,0.33,0.15,-1.08191067621e-10,0.0,0.0,0.0,0.0,0.0,0.0,0.33,-0.15,8.79292523218e-12,0.0,0.0,0.0,0.0,0.0,0.0,-0.33,0.15,5.60163493609e-11,0.0,0.0,0.0,0.0,0.0,0.0,-0.33,-0.15,-1.77726255173e-10,0.0,0.0,0.0,0.0,0.0,0.0,-20.7402617509,-13.6431609142,66.6879082819,2.61150066193,0.268537102266,61.8907623749,1.3270611417,-2.93953199209,68.2046012718,21.9241419602,13.9795480251,72.0791168274,1,1,1,1
265001000,265000000,0.0163905276982,0.00705416322506,0.466146147918,-0.00480520351457,0.0146058530517,0.0071006220218,0.999856569835,0.165937696973,0.0694172051987,0.0423840480686,-0.0762508289176,0.313693039984,0.0182531529529,-0.100011092174,-0.367837784458,-0.0816360809859,-0.961234225281,-2.63206721135,-0.976781792133,0.33,0.15,-1.08191067621e-10,0.0,0.0,0.0,0.0,0.0,0.0,0.33,-0.15,8.79292523218e-12,0.0,0.0,0.0,0.0,0.0,0.0,-0.33,0.15,5.60163493609e-11,0.0,0.0,0.0,0.0,0.0,0.0,-0.33,-0.15,-1.77726255173e-10,0.0,0.0,0.0,0.0,0.0,0.0,-21.6311698746,-14.1681338383,66.780264585,2.93425141166,0.234371253574,62.8838568495,1.66014921784,-2.8869196358,69.6487656753,20.4514647833,13.046812672,67.2425427409,1,1,1,1
267501000,267500000,0.0168050218783,0.00722652231614,0.466251822262,-0.00489956760315,0.0149942760475,0.00712235941354,0.999850207741,0.165642911549,0.068456426318,0.0421434823674,-0.0786689175416,0.306851703951,0.0158145506361,-0.135376359442,-0.400577019352,-0.110302600019,-0.972736792013,-2.83982046702,-0.974034477645,0.33,0.15,-1.08191067621e-10,0.0,0.0,0.0,0.0,0.0,0.0,0.33,-0.15,8.79292523218e-12,0.0,0.0,0.0,0.0,0.0,0.0,-0.33,0.15,5.60163493609e-11,0.0,0.0,0.0,0.0,0.0,0.0,-0.33,-0.15,-1.77726255173e-10,0.0,0.0,0.0,0.0,0.0,0.0,-22.4815855698,-14.6662884426,66.8686017604,3.27184505647,0.196872509909,63.9166559093,2.00777381121,-2.83423552035,71.1493393978,18.9804461205,12.1139622824,62.4104731875,1,1,1,1
270001000,270000000,0.0172186713339,0.00739637845179,0.46635680882,-0.00499698704674,0.0153738619818,0.00714096333265,0.999843828371,0.165263019613,0.0674153616056,0.0418351044685,-0.0811120175903,0.299499843681,0.013383302206,-0.168096302426,-0.432066449814,-0.135885839071,-0.981244996892,-3.04048649092,-0.970901173671,0.33,0.15,-1.08191067621e-10,0.0,0.0,0.0,0.0,0.0,0.0,0.33,-0.15,8.79292523218e-12,0.0,0.0,0.0,0.0,0.0,0.0,-0.33,0.15,5.60163493609e-11,0.0,0.0,0.0,0.0,0.0,0.0,-0.33,-0.15,-1.77726255173e-10,0.0,0.0,0.0,0.0,0.0,0.0,-23.2888990436,-15.1359639703,66.9527027888,3.62373617274,0.156153702239,64.9877039521,2.36937431701,-2.7815140507,72.7041724982,17.5176390937,11.1852613444,57.6045221421,1,1,1,1
272501000,272500000,0.0176312715654,0.00756353482307,0.466460947697,-0.00509749206723,0.0157439844616,0.00715643806843,0.99983745075,0.164804634474,0.0662971355726,0.041466622572,-0.0835726551825,0.291655177992,0.0109603542146,-0.198170921126,-0.462306075844,-0.158385798142,-0.986768371972,-3.23406472708,-0.967396510683,0.33,0.15,-1.08191067621e-10,0.0,0.0,0.0,0.0,0.0,0.0,0.33,-0.15,8.79292523218e-12,0.0,0.0,0.0,0.0,0.0,0.0,-0.33,0.15,5.60163493609e-11,0.0,0.0,0.0,0.0,0.0,0.0,-0.33,-0.15,-1.77726255173e-10,0.0,0.0,0.0,0.0,0.0,0.0,-24.0505005032,-15.5754996641,67.032350651,3.98937933686,0.112327661536,66.0955453756,2.74439013044,-2.72878963179,74.311115035,16.069596825,10.2649743458,52.8463035793,1,1,1,1
275001000,275000000,0.0180426346063,0.00772780243232,0.46656409827,-0.00520110344944,0.0161040391836,0.0071687891883,0.999831094189,0.164274369444,0.0651048727301,0.0410457448778,-0.0860433796109,0.283335426829,0.00854661747472,-0.225600215542,-0.491295897442,-0.177802477233,-0.989315921807,-3.42055483033,-0.963534435594,0.33,0.15,-1.08191067621e-10,0.0,0.0,0.0,0.0,0.0,0.0,0.33,-0.15,8.79292523218e-12,0.0,0.0,0.0,0.0,0.0,0.0,-0.33,0.15,5.60163493609e-11,0.0,0.0,0.0,0.0,0.0,0.0,-0.33,-0.15,-1.77726255173e-10,0.0,0.0,0.0,0.0,0.0,0.0,-24.7637801557,-15.9832347671,67.1073283277,4.36822912524,0.0655072187689,67.2387245777,3.13226064671,-2.67609666856,75.968017067,14.6428724363,9.35736577477,48.157431474,1,1,1,1
277501000,277500000,0.0184525890238,0.00788900009314,0.466666139182,-0.00530783256485,0.0164534439337,0.00717802350694,0.999824778186,0.163678837833,0.0638416975891,0.0405801795858,-0.0885167620042,0.274558310737,0.0061429688719,-0.250384185675,-0.51903591461,-0.194135876344,-0.988896108241,-3.59995666519,-0.95932813008,0.33,0.15,-1.08191067621e-10,0.0,0.0,0.0,0.0,0.0,0.0,0.33,-0.15,8.79292523218e-12,0.0,0.0,0.0,0.0,0.0,0.0,-0.33,0.15,5.60163493609e-11,0.0,0.0,0.0,0.0,0.0,0.0,-0.33,-0.15,-1.77726255173e-10,0.0,0.0,0.0,0.0,0.0,0.0,-25.4261282084,-16.3575085224,67.1774187996,4.75974011425,0.0158052049071,68.4157859559,3.53242526102,-2.62346956596,77.6727286529,13.2440190496,8.46670011918,43.559519801,1,1,1,1
280001000,280000000,0.0188609799178,0.00804695443044,0.466766968351,-0.00541768139379,0.016791638585,0.00718414905755,0.999818522335,0.163024652953,0.0625107346607,0.0400776348961,-0.0909853939523,0.265341550339,0.00375025337461,-0.272522831524,-0.545526127345,-0.207385995474,-0.985516835928,-3.77227030434,-0.954789933724,0.33,0.15,-1.08191067621e-10,0.0,0.0,0.0,0.0,0.0,0.0,0.33,-0.15,8.79292523218e-12,0.0,0.0,0.0,0.0,0.0,0.0,-0.33,0.15,5.60163493609e-11,0.0,0.0,0.0,0.0,0.0,0.0,-0.33,-0.15,-1.77726255173e-10,0.0,0.0,0.0,0.0,0.0,0.0,-26.0349348683,-16.6966601727,67.2424050475,5.16336688029,-0.0366655490793,69.6252739082,3.94432336857,-2.57094272892,79.4230998513,11.879589787,7.59724186702,39.0741825348,1,1,1,1
282501000,282500000,0.0192676689219,0.00820149988038,0.466866502964,-0.0055306425462,0.0171180850966,0.00718717506568,0.999812346228,0.162318428113,0.061115108456,0.0395458190084,-0.093441886096,0.255702865818,0.00136928623048,-0.292016153088,-0.570766535649,-0.217552834623,-0.979185438686,-3.93749602682,-0.949931272002,0.33,0.15,-1.08191067621e-10,0.0,0.0,0.0,0.0,0.0,0.0,0.33,-0.15,8.79292523218e-12,0.0,0.0,0.0,0.0,0.0,0.0,-0.33,0.15,5.60163493609e-11,0.0,0.0,0.0,0.0,0.0,0.0,-0.33,-0.15,-1.77726255173e-10,0.0,0.0,0.0,0.0,0.0,0.0,-26.5875903427,-16.9990289611,67.302070052,5.57856399976,-0.0917922122206,70.8657328321,4.36739436456,-2.5185505624,81.2169807209,10.5561377703,6.75325550629,34.7230336503,1,1,1,1
285001000,285000000,0.0196725342028,0.00835247869041,0.466964679477,-0.00564669928084,0.01743226751,0.00718711192562,0.999806269364,0.161566776624,0.0596579434862,0.0389924401229,-0.0958788666834,0.245659976405,-0.000999144663409,-0.308864150369,-0.594757139521,-0.224636393793,-0.969908666748,-4.09563431595,-0.944762589085,0.33,0.15,-1.08191067621e-10,0.0,0.0,0.0,0.0,0.0,0.0,0.33,-0.15,8.79292523218e-12,0.0,0.0,0.0,0.0,0.0,0.0,-0.33,0.15,5.60163493609e-11,0.0,0.0,0.0,0.0,0.0,0.0,-0.33,-0.15,-1.77726255173e-10,0.0,0.0,0.0,0.0,0.0,0.0,-27.0814848387,-17.2629541307,67.356196794,6.00478604904,-0.149461953547,72.1357071256,4.80107764421,-2.46632747133,83.0522213204,9.28021612175,5.93900552497,30.5276871223,1,1,1,1
287501000,287500000,0.0200754704606,0.00849974091927,0.467061453619,-0.00576582552296,0.0177336919462,0.00718397117977,0.999800311054,0.160776311798,0.0581423642621,0.0384252064395,-0.0982889800967,0.235230599867,-0.00335427622831,-0.323066823366,-0.617497938962,-0.228636672981,-0.957692675007,-4.24668585688,-0.939293285474,0.33,0.15,-1.08191067621e-10,0.0,0.0,0.0,0.0,0.0,0.0,0.33,-0.15,8.79292523218e-12,0.0,0.0,0.0,0.0,0.0,0.0,-0.33,0.15,5.60163493609e-11,0.0,0.0,0.0,0.0,0.0,0.0,-0.33,-0.15,-1.77726255173e-10,0.0,0.0,0.0,0.0,0.0,0.0,-27.5140085634,-17.4867749242,67.4045682541,6.44148760453,-0.209561942089,73.4337411862,5.2448126027,-2.41430786066,84.9266717084,8.05837796316,5.15875641103,26.5097569255,1,1,1,1
290001000,290000000,0.0204763889284,0.00864314443694,0.467156800387,-0.00588798588034,0.0180218866016,0.00717776550097,0.999794490337,0.159953646944,0.056571495295,0.037851826158,-0.10066488535,0.224432452012,-0.00569536752167,-0.33462417208,-0.638988933972,-0.229553672189,-0.942543012316,-4.39065153384,-0.933531660444,0.33,0.15,-1.08191067621e-10,0.0,0.0,0.0,0.0,0.0,0.0,0.33,-0.15,8.79292523218e-12,0.0,0.0,0.0,0.0,0.0,0.0,-0.33,0.15,5.60163493609e-11,0.0,0.0,0.0,0.0,0.0,0.0,-0.33,-0.15,-1.77726255173e-10,0.0,0.0,0.0,0.0,0.0,0.0,-27.8825517241,-17.6688305848,67.4469674131,6.88812324262,-0.271979346876,74.7583794119,5.69803863525,-2.36252613534,86.8381819438,6.89717641658,4.41677265247,22.6908570345,1,1,1,1
292501000,292500000,0.020875217373,0.00878255492471,0.467250714051,-0.00601313565781,0.0182964017437,0.00716850867807,0.999788825886,0.159105395374,0.054948461096,0.0372800074785,-0.102999254561,0.21328324619,-0.00802169691718,-0.343536196509,-0.659230124549,-0.227387391417,-0.924464611938,-4.5275324272,-0.927484859314,0.33,0.15,-1.08191067621e-10,0.0,0.0,0.0,0.0,0.0,0.0,0.33,-0.15,8.79292523218e-12,0.0,0.0,0.0,0.0,0.0,0.0,-0.33,0.15,5.60163493609e-11,0.0,0.0,0.0,0.0,0.0,0.0,-0.33,-0.15,-1.77726255173e-10,0.0,0.0,0.0,0.0,0.0,0.0,-28.1845045279,-17.8074603553,67.4831772517,7.3441475397,-0.336601336939,76.1081662002,6.16019513706,-2.3110167003,88.784602085,5.80316460399,3.71731873725,19.0926014243,1,1,1,1
295001000,295000000,0.0212719000941,0.00891784587515,0.467343208149,-0.00614122087002,0.0185568097053,0.00715621560488,0.999783335927,0.158238170399,0.053276386176,0.0367174586009,-0.105284771403,0.201800692807,-0.0103325591589,-0.349802896654,-0.678221510696,-0.222137830664,-0.903461783197,-4.65732981005,-0.921158825514,0.33,0.15,-1.08191067621e-10,0.0,0.0,0.0,0.0,0.0,0.0,0.33,-0.15,8.79292523218e-12,0.0,0.0,0.0,0.0,0.0,0.0,-0.33,0.15,5.60163493609e-11,0.0,0.0,0.0,0.0,0.0,0.0,-0.33,-0.15,-1.77726255173e-10,0.0,0.0,0.0,0.0,0.0,0.0,-28.417257182,-17.9010034788,67.5129807506,7.80901507217,-0.403315081308,77.481645949,6.63072150333,-2.2598139605,90.7637821909,4.7828956474,3.06465915337,15.7366040695,1,1,1,1
297501000,297500000,0.0216663979249,0.00904889859209,0.467434315492,-0.00627217825265,0.0188027048797,0.00714090227257,0.999778038158,0.157358585328,0.0515583950462,0.0361718877252,-0.107514129536,0.190002498852,-0.0126272623019,-0.353424272516,-0.69596309241,-0.21380498993,-0.879538204425,-4.78004514465,-0.914558257472,0.33,0.15,-1.08191067621e-10,0.0,0.0,0.0,0.0,0.0,0.0,0.33,-0.15,8.79292523218e-12,0.0,0.0,0.0,0.0,0.0,0.0,-0.33,0.15,5.60163493609e-11,0.0,0.0,0.0,0.0,0.0,0.0,-0.33,-0.15,-1.77726255173e-10,0.0,0.0,0.0,0.0,0.0,0.0,-28.5781998935,-17.9477991982,67.5361608906,8.28218041641,-0.472007749013,78.877363056,7.10905712926,-2.20895232087,92.7735723201,3.84292266879,2.4630583888,12.6444789448,1,1,1,1
300001000,300000000,0.0220586882318,0.00917560219063,0.46752408816,-0.00640593527186,0.0190337037141,0.00712258576572,0.999772949668,0.156473253473,0.0497976122176,0.0356510030512,-0.10968003102,0.177906367423,-0.0149051245503,-0.354400324094,-0.712454869693,-0.202388869216,-0.852696917246,-4.89568007849,-0.907686570291,0.33,0.15,-1.08191067621e-10,0.0,0.0,0.0,0.0,0.0,0.0,0.33,-0.15,8.79292523218e-12,0.0,0.0,0.0,0.0,0.0,0.0,-0.33,0.15,5.60163493609e-11,0.0,0.0,0.0,0.0,0.0,0.0,-0.33,-0.15,-1.77726255173e-10,0.0,0.0,0.0,0.0,0.0,0.0,-28.6647228696,-17.9461867565,67.5525006523,8.76309814883,-0.542566509084,80.293861919,7.59464141006,-2.15846618635,94.8118225313,2.98979879017,1.91678093152,9.83784002509,1,1,1,1
302501000,302500000,0.0224487649144,0.00929785359718,0.467612597503,-0.00654241013216,0.0192494447028,0.00710128426203,0.999768086863,0.155588788144,0.0479971622014,0.0351625127791,-0.111775184717,0.165529997274,-0.0171654710067,-0.352731051387,-0.727696842545,-0.187889468522,-0.822940322266,-5.00423644008,-0.900545862228,0.33,0.15,-1.08191067621e-10,0.0,0.0,0.0,0.0,0.0,0.0,0.33,-0.15,8.79292523218e-12,0.0,0.0,0.0,0.0,0.0,0.0,-0.33,0.15,5.60163493609e-11,0.0,0.0,0.0,0.0,0.0,0.0,-0.33,-0.15,-1.77726255173e-10,0.0,0.0,0.0,0.0,0.0,0.0,-28.6772265536,-17.8969388324,67.5517891931,9.2512228458,-0.614878530552,81.7296869357,8.08691374093,-2.1083899619,96.8763828832,2.23007713353,1.43009126952,7.33830128503,1,1,1,1
305001000,305000000,0.0228366384057,0.00941555754941,0.467699934143,-0.0066815117825,0.0194495883806,0.00707701703586,0.999763465397,0.154711802653,0.0461601695086,0.0347141251086,-0.11379230469,0.152891082367,-0.0194076303427,-0.348416454397,-0.741689010965,-0.170306787847,-0.790270176242,-5.10571623448,-0.893136885968,0.33,0.15,-1.08191067621e-10,0.0,0.0,0.0,0.0,0.0,0.0,0.33,-0.15,8.79292523218e-12,0.0,0.0,0.0,0.0,0.0,0.0,-0.33,0.15,5.60163493609e-11,0.0,0.0,0.0,0.0,0.0,0.0,-0.33,-0.15,-1.77726255173e-10,0.0,0.0,0.0,0.0,0.0,0.0,-28.6380024051,-17.8182372786,67.4572831248,9.74600908372,-0.688830982447,83.1833825038,8.58531351707,-2.05875805245,98.9651034344,1.57031082085,1.00725389078,5.16747669938,1,1,1,1
307501000,307500000,0.023222335672,0.00952862659626,0.467786207971,-0.00682313992071,0.0196338173151,0.00704980446563,0.999759100102,0.153848910309,0.0442897586503,0.0343135482398,-0.115724108583,0.140007311432,-0.0216309314042,-0.341456533124,-0.754431374953,-0.149640827191,-0.754687590742,-5.20012163844,-0.885459024684,0.33,0.15,-1.08191067621e-10,0.0,0.0,0.0,0.0,0.0,0.0,0.33,-0.15,8.79292523218e-12,0.0,0.0,0.0,0.0,0.0,0.0,-0.33,0.15,5.60163493609e-11,0.0,0.0,0.0,0.0,0.0,0.0,-0.33,-0.15,-1.77726255173e-10,0.0,0.0,0.0,0.0,0.0,0.0,-28.5533810582,-17.7148587038,67.2559820843,10.246911439,-0.764311033798,84.6534930211,9.08928013368,-2.00960486296,101.075834244,1.01705297414,0.652533283277,3.34698024288,1,1,1,1
310001000,310000000,0.0236059002126,0.00963698109795,0.46787154815,-0.00696718499624,0.0198018360987,0.00701966804512,0.999755004929,0.153006724424,0.0423890541375,0.0339684903726,-0.117563316017,0.126896367551,-0.023834699763,-0.331851287566,-0.76592393451,-0.125891586555,-0.716193032385,-5.28745499542,-0.877510272881,0.33,0.15,-1.08191067621e-10,0.0,0.0,0.0,0.0,0.0,0.0,0.33,-0.15,8.79292523218e-12,0.0,0.0,0.0,0.0,0.0,0.0,-0.33,0.15,5.60163493609e-11,0.0,0.0,0.0,0.0,0.0,0.0,-0.33,-0.15,-1.77726255173e-10,0.0,0.0,0.0,0.0,0.0,0.0,-28.4249414096,-17.5876945114,66.9516016484,10.753384488,-0.841205853637,86.1385628854,9.59825298598,-1.96096479835,103.20642537,0.576856715385,0.370193934995,1.8984258903,1,1,1,1
312501000,312500000,0.0239873920605,0.00974054922599,0.467956103112,-0.00711352821115,0.0199533713404,0.00698663039877,0.99975119289,0.152191858308,0.0404611804814,0.033686659707,-0.119302646972,0.113575927744,-0.0260182542254,-0.319600717724,-0.776166689635,-0.099059065939,-0.674786324669,-5.3677188101,-0.869287222027,0.33,0.15,-1.08191067621e-10,0.0,0.0,0.0,0.0,0.0,0.0,0.33,-0.15,8.79292523218e-12,0.0,0.0,0.0,0.0,0.0,0.0,-0.33,0.15,5.60163493609e-11,0.0,0.0,0.0,0.0,0.0,0.0,-0.33,-0.15,-1.77726255173e-10,0.0,0.0,0.0,0.0,0.0,0.0,-28.2542623561,-17.4376361047,66.5478573943,11.2648828071,-0.919402610994,87.6371364944,10.1116714692,-1.91287226358,105.354726871,0.256275166586,0.164500333916,0.843427616373,1,1,1,1
315001000,315000000,0.0243668877817,0.00983926696316,0.468040040561,-0.00726204151952,0.0200881716574,0.00695071530085,0.999747676001,0.151410925272,0.038509262193,0.0334757644429,-0.120934820187,0.100063662573,-0.0281809033123,-0.304704823599,-0.785159640329,-0.069143265342,-0.630466651423,-5.44091574279,-0.860785050963,0.33,0.15,-1.08191067621e-10,0.0,0.0,0.0,0.0,0.0,0.0,0.33,-0.15,8.79292523218e-12,0.0,0.0,0.0,0.0,0.0,0.0,-0.33,0.15,5.60163493609e-11,0.0,0.0,0.0,0.0,0.0,0.0,-0.33,-0.15,-1.77726255173e-10,0.0,0.0,0.0,0.0,0.0,0.0,-28.0429227943,-17.2655748869,66.048464899,11.7808609728,-0.998788474898,89.1477582458,10.6289749784,-1.86536166359,107.518588806,0.0618614497333,0.0397169680202,0.203599395848,1,1,1,1
317501000,317500000,0.0247444804756,0.00993307810352,0.468123547471,-0.0074125876251,0.020206007666,0.00691194769881,0.99974446524,0.150670538627,0.0365364237835,0.0333435127803,-0.122452551566,0.0863772357611,-0.0303219417205,-0.287163605189,-0.792902786591,-0.0361441847645,-0.58323256193,-5.50704860344,-0.851997521084,0.33,0.15,-1.08191067621e-10,0.0,0.0,0.0,0.0,0.0,0.0,0.33,-0.15,8.79292523218e-12,0.0,0.0,0.0,0.0,0.0,0.0,-0.33,0.15,5.60163493609e-11,0.0,0.0,0.0,0.0,0.0,0.0,-0.329999862231,-0.149999992468,1.24134462756e-07,0.00223721709755,0.000122308915592,0.00201855297646,18.158672341,0.992736701788,16.3802954487,-27.7925016209,-17.0724022615,65.4571397394,12.3007735614,-1.07925061438,90.6689725375,11.149602909,-1.81846740332,109.695861235,0.0,0.0,0.0,1,1,1,0
320001000,320000000,0.0251202797746,0.0100219342524,0.468206830085,-0.00756501997734,0.0203066719729,0.00687035374037,0.9997415705,0.149977311683,0.0345457897638,0.0332976129191,-0.123848552601,0.0725343038255,-0.0324406467779,-0.266977062496,-0.799396128421,-6.1824206508e-05,-0.533081977716,-5.56612034534,-0.842916976301,0.33,0.15,-1.08191067621e-10,0.0,0.0,0.0,0.0,0.0,0.0,0.33,-0.15,8.79292523218e-12,0.0,0.0,0.0,0.0,0.0,0.0,-0.33,0.15,5.60163493609e-11,0.0,0.0,0.0,0.0,0.0,0.0,-0.329937926361,-0.149996606427,5.58447223329e-05,0.0471502698148,0.00257771066438,0.0423522301804,17.7717698328,0.971584697245,15.8866463145,-27.5045777328,-16.8590096317,64.7775974927,12.8240751492,-1.16067619847,92.199323767,11.672994656,-1.77222388772,111.884394214,0.0,0.0,0.0,1,1,1,0
322501000,322500000,0.0254944118448,0.0101057948264,0.468290113919,-0.00771918276574,0.0203899791651,0.00682596080476,0.999739000553,0.149337857752,0.0325404846451,0.0333457730593,-0.125115528811,0.0585525157285,-0.0345362749046,-0.244145195519,-0.80463966582,0.039103816332,-0.480012201029,-5.61813405859,-0.833534347782,0.33,0.15,-1.08191067621e-10,0.0,0.0,0.0,0.0,0.0,0.0,0.33,-0.15,8.79292523218e-12,0.0,0.0,0.0,0.0,0.0,0.0,-0.33,0.15,5.60163493609e-11,0.0,0.0,0.0,0.0,0.0,0.0,-0.329764916929,-0.149987147982,0.000210856849668,0.0910960662617,0.00498023240182,0.0814517845488,17.3848673247,0.950432692702,15.3929971803,-27.1807300265,-16.6262884009,64.0135537358,13.3502203128,-1.2429523962,93.7373563323,12.1985896147,-1.72666552173,114.082037804,0.0,0.0,0.0,1,1,1,0
325001000,325000000,0.0258670193853,0.0101846270535,0.468373643757,-0.00787491091266,0.0204557658009,0.0067787975378,0.999736763017,0.148758790143,0.0305236329384,0.0334957014007,-0.126246178207,0.0444495125432,-0.0366080580922,-0.218668004258,-0.808633398788,0.081352736851,-0.424019925014,-5.6630929632,-0.823839163452,0.33,0.15,-1.08191067621e-10,0.0,0.0,0.0,0.0,0.0,0.0,0.33,-0.15,8.79292523218e-12,0.0,0.0,0.0,0.0,0.0,0.0,-0.33,0.15,5.60163493609e-11,0.0,0.0,0.0,0.0,0.0,0.0,-0.329483252077,-0.149971749332,0.000462075209381,0.134074606438,0.0073298741279,0.119317216082,16.9979648165,0.929280688159,14.8993480461,-26.8225373988,-16.3751299723,63.1687240458,13.8786636285,-1.3259663766,95.2816146309,12.7258271804,-1.6818267103,116.286642062,0.0,0.0,0.0,1,1,1,0
327501000,327500000,0.0262382616286,0.0102584059727,0.468457683656,-0.00803203006447,0.0205038903998,0.00672889389075,0.999734864331,0.148246722167,0.0284983591548,0.0337551061435,-0.127233189783,0.0302429271373,-0.0386552004126,-0.190545488713,-0.811377327324,0.12668493735,-0.365101245585,-5.70100040194,-0.813819562283,0.33,0.15,-1.08191067621e-10,0.0,0.0,0.0,0.0,0.0,0.0,0.33,-0.15,8.79292523218e-12,0.0,0.0,0.0,0.0,0.0,0.0,-0.33,0.15,5.60163493609e-11,0.0,0.0,0.0,0.0,0.0,0.0,-0.329095349944,-0.149950542678,0.000806414494381,0.176085890344,0.00962663584262,0.155948524779,16.6110623084,0.908128683616,14.4056989119,-26.4315787465,-16.1064257494,62.2468239997,14.4088596726,-1.40960530869,96.8306430608,13.2541467481,-1.63774185836,118.496057049,0.0,0.0,0.0,1,1,1,0
330001000,330000000,0.0266083143403,0.0103271144346,0.468542516942,-0.00819035658119,0.020534233433,0.00667628116314,0.999733309731,0.147808267136,0.0264677878054,0.0341316954875,-0.128069242042,0.0159503838763,-0.0406768745679,-0.159777648885,-0.812871451428,0.17510041783,-0.303251674975,-5.7318598328,-0.803462313347,0.33,0.15,-1.08191067621e-10,0.0,0.0,0.0,0.0,0.0,0.0,0.33,-0.15,8.79292523218e-12,0.0,0.0,0.0,0.0,0.0,0.0,-0.33,0.15,5.60163493609e-11,0.0,0.0,0.0,0.0,0.0,0.0,-0.328603628672,-0.149923660219,0.00124078939758,0.21712991798,0.011870517546,0.191345710641,16.2241598002,0.886976679073,13.9120497777,-26.0094329661,-15.8210671354,61.2515691745,14.9402630216,-1.49375636152,98.3829860196,13.7829877131,-1.59444537086,120.708132821,0.0,0.0,0.0,1,1,1,0
332501000,332500000,0.0269773698195,0.0103907431009,0.468628446211,-0.00834969752457,0.0205466973126,0.00662099204906,0.999732103238,0.14745003836,0.0244350434014,0.0346331776326,-0.128747001551,0.00158949834478,-0.0426722184953,-0.126364484772,-0.813115771101,0.226599178291,-0.23846615696,-5.7556748212,-0.792752839651,0.33,0.15,-1.08191067621e-10,0.0,0.0,0.0,0.0,0.0,0.0,0.33,-0.15,8.79292523218e-12,0.0,0.0,0.0,0.0,0.0,0.0,-0.33,0.15,5.60163493609e-11,0.0,0.0,0.0,0.0,0.0,0.0,-0.328010506401,-0.149891234157,0.00176211461189,0.257206689345,0.014061519238,0.225508773668,15.8372572921,0.86582467453,13.4184006435,-25.5576789545,-15.5199455336,60.1866751473,15.4723282519,-1.5783067041,99.937187905,14.3117894706,-1.55197165275,122.920719438,0.0,0.0,0.0,1,1,1,0
335001000,335000000,0.0273456368984,0.0104492904445,0.468715793331,-0.00850985064478,0.0205412063821,0.00656306068725,0.999731247644,0.147178649149,0.0224032504536,0.0352672607789,-0.129259121545,-0.0128221229123,-0.0446403320358,-0.0903059963759,-0.812110286342,0.281181218732,-0.170739083733,-5.77244903186,-0.781675246748,0.33,0.15,-1.08191067621e-10,0.0,0.0,0.0,0.0,0.0,0.0,0.33,-0.15,8.79292523218e-12,0.0,0.0,0.0,0.0,0.0,0.0,-0.33,0.15,5.60163493609e-11,0.0,0.0,0.0,0.0,0.0,0.0,-0.327318401272,-0.14985339669,0.00236730483022,0.29631620444,0.0161996409186,0.258437713859,15.4503547839,0.844672669987,12.9247515093,-25.0778956083,-15.2039523474,59.055857495,16.0045099399,-1.66314350547,101.491793115,14.8399914159,-1.51035510897,125.131666958,0.0,0.0,0.0,1,1,1,0
337501000,337500000,0.0277133409426,0.0105027627498,0.468804899439,-0.00867060436554,0.0205177069059,0.00650252271454,0.999730744512,0.147000712815,0.0203755334733,0.0360416531263,-0.12959824057,-0.0272668826271,-0.0465802736822,-0.0516021836956,-0.809854997152,0.338846539153,-0.100064314391,-5.78218622031,-0.770212356125,0.33,0.15,-1.08191067621e-10,0.0,0.0,0.0,0.0,0.0,0.0,0.33,-0.15,8.79292523218e-12,0.0,0.0,0.0,0.0,0.0,0.0,-0.33,0.15,5.60163493609e-11,0.0,0.0,0.0,0.0,0.0,0.0,-0.326529731426,-0.149810280019,0.00305327474549,0.334458463265,0.0182848825879,0.290132531214,15.0634522758,0.823520665444,12.4311023751,-24.5716618242,-14.8739789802,57.8628317947,16.5362626618,-1.74815393467,103.045346047,15.367032944,-1.46963014446,127.338825441,0.0,0.0,0.0,1,1,1,0
340001000,340000000,0.028080723851,0.0105511741123,0.468896124944,-0.00883173776797,0.0204761670589,0.00643941532265,0.999730594171,0.146922842668,0.0183550169716,0.0369640628747,-0.129756981172,-0.0417271930247,-0.0484910574148,-0.0102530467315,-0.80634990353,0.399595139556,-0.0264351950056,-5.78489022414,-0.758345743379,0.33,0.15,-1.08191067621e-10,0.0,0.0,0.0,0.0,0.0,0.0,0.33,-0.15,8.79292523218e-12,0.0,0.0,0.0,0.0,0.0,0.0,-0.33,0.15,5.60163493609e-11,0.0,0.0,0.0,0.0,0.0,0.0,-0.325646915003,-0.149762016343,0.0038169390506,0.371633465819,0.0203172442459,0.320593225734,14.6765497676,0.802368660901,11.9374532409,-24.040556499,-14.5309168351,56.6113136235,17.0670409943,-1.83322516071,104.596391099,15.8923534503,-1.42983116416,129.540044945,0.0,0.0,0.0,1,1,1,0
342501000,342500000,0.0284480440555,0.0105945464388,0.468989849525,-0.00899302057305,0.0204165769165,0.00637377731821,0.99973079573,0.146951652018,0.0163448254594,0.038042198224,-0.129727948645,-0.0561854760175,-0.05037164964,0.0337414145165,-0.801595005476,0.463427019938,0.0501554197665,-5.78056495381,-0.746055781179,0.33,0.15,-1.08191067621e-10,0.0,0.0,0.0,0.0,0.0,0.0,0.33,-0.15,8.79292523218e-12,0.0,0.0,0.0,0.0,0.0,0.0,-0.33,0.15,5.60163493609e-11,0.0,0.0,0.0,0.0,0.0,0.0,-0.324672370143,-0.149708737864,0.00465521243846,0.407841212103,0.0222967258924,0.349819797419,14.2896472595,0.781216656358,11.4438041067,-23.4861585294,-14.1756573156,55.3050185583,17.5962995135,-1.91824435263,106.143472669,16.4153923299,-1.39099257302,131.733175528,0.0,0.0,0.0,1,1,1,0
345001000,345000000,0.0288155765217,0.0106329094475,0.46908647213,-0.00915421312282,0.0203389484439,0.00630564918574,0.999731347086,0.147093754177,0.0143480834479,0.0392837673743,-0.129503729828,-0.0706241633753,-0.0522209662414,0.0803812000483,-0.795590302991,0.530342180301,0.129715143588,-5.76921438318,-0.733321687016,0.33,0.15,-1.08191067621e-10,0.0,0.0,0.0,0.0,0.0,0.0,0.33,-0.15,8.79292523218e-12,0.0,0.0,0.0,0.0,0.0,0.0,-0.33,0.15,5.60163493609e-11,0.0,0.0,0.0,0.0,0.0,0.0,-0.323608514989,-0.149650576781,0.005565009602,0.443081702117,0.0242233275276,0.377812246268,13.9027447513,0.760064651815,10.9501549726,-22.9100468121,-13.809091825,53.9476621762,18.123492796,-2.00309867947,107.685135154,16.935588978,-1.35314877599,133.91606725,0.0,0.0,0.0,1,1,1,0
347501000,347500000,0.0291836127482,0.0106663006677,0.46918641098,-0.00931506636033,0.0202433154861,0.00623507315357,0.999732244943,0.147355762455,0.0123679154481,0.0406964785255,-0.129076891967,-0.0850256968715,-0.0540378697565,0.129666309864,-0.788335796074,0.600340620645,0.212252033913,-5.7508425397,-0.720121575753,0.33,0.15,-1.08191067621e-10,0.0,0.0,0.0,0.0,0.0,0.0,0.33,-0.15,8.79292523218e-12,0.0,0.0,0.0,0.0,0.0,0.0,-0.33,0.15,5.60163493609e-11,0.0,0.0,0.0,0.0,0.0,0.0,-0.32245776768,-0.149587665293,0.00654324523411,0.47735493586,0.0260970491515,0.404570572282,13.5158422432,0.738912647272,10.4565058384,-22.3138002437,-13.4321117666,52.5429600542,18.6480754182,-2.08767531024,109.219922952,17.4523827898,-1.316334178,136.086570169,0.0,0.0,0.0,1,1,1,0
350001000,350000000,0.0295524607668,0.0106947654402,0.469290103564,-0.00947532180849,0.0201297337577,0.00616209326225,0.999733484836,0.147744290163,0.0104074459712,0.0422880398775,-0.128439981635,-0.0993725284045,-0.0558211666912,0.181596743964,-0.779831484726,0.673422340969,0.297774566087,-5.72545349419,-0.706432516973,0.33,0.15,-1.08191067621e-10,0.0,0.0,0.0,0.0,0.0,0.0,0.33,-0.15,8.79292523218e-12,0.0,0.0,0.0,0.0,0.0,0.0,-0.33,0.15,5.60163493609e-11,0.0,0.0,0.0,0.0,0.0,0.0,-0.321222546356,-0.149520135602,0.00758683402771,0.510660913333,0.027917890764,0.43009477546,13.128939735,0.717760642729,9.96285670417,-21.6989977211,-13.0456085437,51.0946277693,19.1695019563,-2.17186141398,110.746380461,17.9652131606,-1.28058318401,138.242534343,0.0,0.0,0.0,1,1,1,0
352501000,352500000,0.0299224451429,0.0107183569168,0.469398006645,-0.00963471154777,0.0199982808327,0.00608675543553,0.999735061156,0.148265950612,0.00846979952819,0.0440661596303,-0.127585523723,-0.113647120093,-0.0575696049827,0.236172502347,-0.770077368946,0.749587341273,0.386291606157,-5.6930513503,-0.692230597138,0.33,0.15,-1.08191067621e-10,0.0,0.0,0.0,0.0,0.0,0.0,0.33,-0.15,8.79292523218e-12,0.0,0.0,0.0,0.0,0.0,0.0,-0.33,0.15,5.60163493609e-11,0.0,0.0,0.0,0.0,0.0,0.0,-0.31990526916,-0.149448119906,0.00869269067571,0.542999634535,0.0296858523651,0.454384855803,12.7420372269,0.696608638186,9.46920756997,-21.0672181409,-12.6504735597,49.6063808986,19.6872269868,-2.25554415973,112.263052079,18.4735194855,-1.24593019894,140.381809831,0.0,0.0,0.0,1,1,1,0
355001000,355000000,0.030293906975,0.0107371360607,0.469510596251,-0.00979295819285,0.019849056134,0.00600910755348,0.99973696719,0.148927357112,0.00655810063016,0.0460385459839,-0.1265060205,-0.127831944345,-0.0592818716247,0.293393585014,-0.759073448735,0.828835621558,0.477812382441,-5.65364023355,-0.67749098655,0.33,0.15,-1.08191067621e-10,0.0,0.0,0.0,0.0,0.0,0.0,0.33,-0.15,8.79292523218e-12,0.0,0.0,0.0,0.0,0.0,0.0,-0.33,0.15,5.60163493609e-11,0.0,0.0,0.0,0.0,0.0,0.0,-0.318508354231,-0.149371750406,0.00985772987103,0.574371099467,0.0314009339549,0.47744081331,12.3551347187,0.675456633643,8.97555843578,-20.4200403997,-12.2475982178,48.081935019,20.2007050861,-2.3386107165,113.768482203,18.9767411597,-1.21240962776,142.502246693,0.0,0.0,0.0,1,1,1,0
357501000,357500000,0.0306672038946,0.0107511716466,0.469628367687,-0.00994977486842,0.0196821809245,0.00592919952752,0.999739195154,0.149735122974,0.0046754737882,0.0482129071381,-0.125193950738,-0.141909483897,-0.0609565904661,0.353259991966,-0.746819724092,0.911167181824,0.572346455973,-5.60722428004,-0.662188011145,0.33,0.15,-1.08191067621e-10,0.0,0.0,0.0,0.0,0.0,0.0,0.33,-0.15,8.79292523218e-12,0.0,0.0,0.0,0.0,0.0,0.0,-0.33,0.15,5.60163493609e-11,0.0,0.0,0.0,0.0,0.0,0.0,-0.317034219709,-0.149291159303,0.0110788663066,0.604775308129,0.0330631355334,0.499262647982,11.9682322106,0.6543046291,8.48190930159,-19.7590433945,-11.8378739214,46.5250057077,20.7093908306,-2.42094825334,115.261215231,19.4743175785,-1.1800558754,144.601694986,0.0,0.0,0.0,1,1,1,0
360001000,360000000,0.031042710067,0.0107605402602,0.469751835523,-0.010104865184,0.0194977982964,0.00584708337723,0.999741736239,0.150695861509,0.00282504351339,0.050596951293,-0.123641768927,-0.155862231827,-0.062592320194,0.415771723201,-0.733316195018,0.99658202207,0.669903689868,-5.55380762476,-0.646295229098,0.33,0.15,-1.08191067621e-10,0.0,0.0,0.0,0.0,0.0,0.0,0.33,-0.15,8.79292523218e-12,0.0,0.0,0.0,0.0,0.0,0.0,-0.33,0.15,5.60163493609e-11,0.0,0.0,0.0,0.0,0.0,0.0,-0.315485283737,-0.149206478795,0.0123530146752,0.63421226052,0.0346724571004,0.519850359818,11.5813297024,0.633152624557,7.9882601674,-19.0858060217,-11.4221920738,44.9393085416,21.2127387967,-2.50244393927,116.739795562,19.965688137,-1.1489033468,146.678004769,0.0,0.0,0.0,1,1,1,0
362501000,362500000,0.0314208161905,0.0107653262984,0.469881533603,-0.0102579232078,0.0192960731621,0.0057628133085,0.999744580658,0.151816186027,0.00100993431681,0.0531983866485,-0.121841904551,-0.169672691538,-0.0641875525159,0.48092877872,-0.718562861512,1.0850801423,0.770494217736,-5.49339438949,-0.629785512264,0.33,0.15,-1.08191067621e-10,0.0,0.0,0.0,0.0,0.0,0.0,0.33,-0.15,8.79292523218e-12,0.0,0.0,0.0,0.0,0.0,0.0,-0.33,0.15,5.60163493609e-11,0.0,0.0,0.0,0.0,0.0,0.0,-0.313863964454,-0.149117841084,0.01367708967,0.662681956641,0.0362288986561,0.539203948819,11.1944271943,0.612000620014,7.49461103321,-18.4019071783,-11.0014440784,43.3285590978,21.7102035608,-2.58298494332,118.202767591,20.4502922304,-1.1189864469,148.729026102,0.0,0.0,0.0,1,1,1,0
365001000,365000000,0.0318019294966,0.0107656219697,0.470018015039,-0.0104086334404,0.0190771922449,0.00567644579288,0.999747717701,0.153102709839,-0.000766729290473,0.0560249214045,-0.119786761456,-0.183323376706,-0.0657407105503,0.548731158522,-0.702559723574,1.1766615425,0.87412841121,-5.4259886703,-0.612631132451,0.33,0.15,-1.08191067621e-10,0.0,0.0,0.0,0.0,0.0,0.0,0.33,-0.15,8.79292523218e-12,0.0,0.0,0.0,0.0,0.0,0.0,-0.33,0.15,5.60163493609e-11,0.0,0.0,0.0,0.0,0.0,0.0,-0.312172680001,-0.149025378369,0.0150480059836,0.690184396492,0.0377324602005,0.557323414984,10.8075246861,0.590848615471,7.00096189901,-17.7089257608,-10.5765213384,41.6964729533,22.2012396992,-2.66245843453,119.648675719,20.927569254,-1.09033958067,150.752609042,0.0,0.0,0.0,1,1,1,0
367501000,367500000,0.0321864737502,0.0107615272937,0.470161852216,-0.0105566707869,0.0188413640695,0.0055880396477,0.999751135791,0.154562046256,-0.00250182279737,0.059084263761,-0.117468717298,-0.196796811202,-0.0672501474396,0.619178862609,-0.685306781205,1.27132622269,0.980816846701,-5.35159452469,-0.594803852542,0.33,0.15,-1.08191067621e-10,0.0,0.0,0.0,0.0,0.0,0.0,0.33,-0.15,8.79292523218e-12,0.0,0.0,0.0,0.0,0.0,0.0,-0.33,0.15,5.60163493609e-11,0.0,0.0,0.0,0.0,0.0,0.0,-0.310413848518,-0.14892922285,0.0164626783092,0.716719580072,0.0391831417335,0.574208758314,10.420622178,0.569696610928,6.50731276482,-17.0084406659,-10.1483152573,40.0467656851,22.6853017884,-2.74075158191,121.076064341,21.3969586029,-1.06299715302,152.746603649,0.0,0.0,0.0,1,1,1,0
370001000,370000000,0.0325748892495,0.0107531501013,0.470313636788,-0.0107017005296,0.0185888189537,0.0054976561167,0.99975482254,0.156200808589,-0.00419222169281,0.0623841219179,-0.114880123069,-0.210075528981,-0.0687141451966,0.692271890979,-0.666804034404,1.36907418286,1.09057027148,-5.27021595828,-0.576275022458,0.33,0.15,-1.08191067621e-10,0.0,0.0,0.0,0.0,0.0,0.0,0.33,-0.15,8.79292523218e-12,0.0,0.0,0.0,0.0,0.0,0.0,-0.33,0.15,5.60163493609e-11,0.0,0.0,0.0,0.0,0.0,0.0,-0.308589888147,-0.148829506727,0.0179180213395,0.742287507382,0.0405809432551,0.589859978808,10.0337196698,0.548544606385,6.01366363063,-16.3020307905,-9.71771723819,38.3831528702,23.1618444047,-2.81775155451,122.483477857,21.8578996724,-1.03699356892,154.708859981,0.0,0.0,0.0,1,1,1,0
372501000,372500000,0.0329676328258,0.0107406060345,0.470473979679,-0.0108433782988,0.0183198089994,0.00540535895086,0.999758764823,0.158025610148,-0.0058348014657,0.0659322040752,-0.112013302716,-0.223142073929,-0.0701309137973,0.768010243634,-0.647051483172,1.46990542301,1.20339956918,-5.18185691105,-0.55701567997,0.33,0.15,-1.08191067621e-10,0.0,0.0,0.0,0.0,0.0,0.0,0.33,-0.15,8.79292523218e-12,0.0,0.0,0.0,0.0,0.0,0.0,-0.33,0.15,5.60163493609e-11,0.0,0.0,0.0,0.0,0.0,0.0,-0.306703217028,-0.1487263622,0.0194109497675,0.766888178421,0.0419258647654,0.604277076467,9.6468171617,0.527392601842,5.52001449644,-15.5912750311,-9.28561868456,36.7093500857,23.6303221246,-2.89334552135,123.869460662,22.3098318576,-1.01236323329,156.637228096,0.0,0.0,0.0,1,1,1,0
375001000,375000000,0.033365177844,0.010724018547,0.470643511085,-0.0109813500447,0.0180346080848,0.00531121448902,0.999762948835,0.160043064244,-0.00742643760497,0.0697362184329,-0.108860552843,-0.235978999688,-0.0714985905315,0.846393920572,-0.626049127508,1.57381994314,1.31931572487,-5.08652124329,-0.536996656379,0.33,0.15,-1.08191067621e-10,0.0,0.0,0.0,0.0,0.0,0.0,0.33,-0.15,8.79292523218e-12,0.0,0.0,0.0,0.0,0.0,0.0,-0.33,0.15,5.60163493609e-11,0.0,0.0,0.0,0.0,0.0,0.0,-0.304756253302,-0.14861992147,0.0209383782861,0.79052159319,0.0432179062644,0.61746005129,9.25991465355,0.506240597299,5.02636536225,-14.8777522846,-8.85291099968,35.0290729086,24.0901895244,-2.96742065146,125.232557157,22.7521945538,-0.989140551099,158.529558054,0.0,0.0,0.0,1,1,1,0
377501000,377500000,0.0337680142019,0.0107035189033,0.470822880471,-0.0111152520078,0.017733511856,0.00521529173794,0.99976736017,0.162259784188,-0.00896400559955,0.0738038731909,-0.105414142501,-0.248568869436,-0.0728152396239,0.927422921794,-0.603796967413,1.68081774325,1.43832978968,-4.98421272095,-0.516188687044,0.33,0.15,-1.08191067621e-10,0.0,0.0,0.0,0.0,0.0,0.0,0.33,-0.15,8.79292523218e-12,0.0,0.0,0.0,0.0,0.0,0.0,-0.33,0.15,5.60163493609e-11,0.0,0.0,0.0,0.0,0.0,0.0,-0.302751415109,-0.148510316735,0.0224972215883,0.813187751689,0.0444570677519,0.629408903278,8.8730121454,0.485088592756,4.53271622805,-14.1630414476,-8.42048558689,33.3460369159,24.5409011805,-3.03986411388,126.571311737,23.1844271562,-0.967359927273,160.383699913,0.0,0.0,0.0,1,1,1,0
380001000,380000000,0.0341766483309,0.0106792461795,0.471012756575,-0.0112447106897,0.0174168377203,0.00511766245147,0.999771983893,0.16468238329,-0.0104443809383,0.0781428765491,-0.101666313069,-0.260894255631,-0.0740788521371,1.0110972473,-0.580295002886,1.79089882334,1.56045284534,-4.8749350007,-0.494562526787,0.33,0.15,-1.08191067621e-10,0.0,0.0,0.0,0.0,0.0,0.0,0.33,-0.15,8.79292523218e-12,0.0,0.0,0.0,0.0,0.0,0.0,-0.33,0.15,5.60163493609e-11,0.0,0.0,0.0,0.0,0.0,0.0,-0.30069112059,-0.148397680198,0.0240843943668,0.834886653917,0.0456433492281,0.64012363243,8.48610963725,0.463936588213,4.03906709386,-13.4487214168,-7.98923384951,31.6639576847,24.9819116693,-3.11056307763,127.884268802,23.6059690599,-0.947055766761,162.197503732,0.0,0.0,0.0,1,1,1,0
382501000,382500000,0.0345916031954,0.0106513472629,0.471213827401,-0.0113693428233,0.0170849248386,0.00501840120834,0.99977680461,0.167317474861,-0.0118644391103,0.0827609367076,-0.0976092782173,-0.272937739722,-0.0752873461701,1.09741689709,-0.555543233928,1.90406318341,1.68569596838,-4.75869161447,-0.47208907015,0.33,0.15,-1.08191067621e-10,0.0,0.0,0.0,0.0,0.0,0.0,0.33,-0.15,8.79292523218e-12,0.0,0.0,0.0,0.0,0.0,0.0,-0.33,0.15,5.60163493609e-11,0.0,0.0,0.0,0.0,0.0,0.0,-0.298577787886,-0.148282144056,0.0256968113147,0.855618299875,0.046776750693,0.649604238747,8.0992071291,0.44278458367,3.54541795967,-12.736371089,-7.56004719086,29.9865507919,25.4126755672,-3.17940471174,129.169972748,24.0162596601,-0.928262474506,163.96881957,0.0,0.0,0.0,1,1,1,0
385001000,385000000,0.0350134182934,0.010619976852,0.471426800229,-0.0114887553438,0.0167381341192,0.00491758548827,0.999781806556,0.170171672212,-0.0132210556043,0.0876657618662,-0.093235223972,-0.284681911813,-0.0764385673628,1.18638187116,-0.529541660538,2.02031082346,1.81407019449,-4.63548595361,-0.448739476537,0.33,0.15,-1.08191067621e-10,0.0,0.0,0.0,0.0,0.0,0.0,0.33,-0.15,8.79292523218e-12,0.0,0.0,0.0,0.0,0.0,0.0,-0.33,0.15,5.60163493609e-11,0.0,0.0,0.0,0.0,0.0,0.0,-0.296413835138,-0.148163840511,0.0273313871249,0.875382689563,0.0478572721465,0.657850722229,7.71230462095,0.421632579127,3.05176882548,-12.0275693608,-7.13381701426,28.3175318147,25.8326474507,-3.24627618525,130.426967973,24.4147383522,-0.911014455452,165.695497484,0.0,0.0,0.0,1,1,1,0
387501000,387500000,0.0354426496557,0.0105852974567,0.471652401605,-0.0116025453581,0.0163768482117,0.00481529574587,0.999786973665,0.173251588654,-0.0145111059093,0.0928650602248,-0.0885363088565,-0.296109370295,-0.0775302897192,1.27799216952,-0.502290282716,2.13964174349,1.94558648284,-4.50532125258,-0.424485300215,0.33,0.15,-1.08191067621e-10,0.0,0.0,0.0,0.0,0.0,0.0,0.33,-0.15,8.79292523218e-12,0.0,0.0,0.0,0.0,0.0,0.0,-0.33,0.15,5.60163493609e-11,0.0,0.0,0.0,0.0,0.0,0.0,-0.294201680486,-0.148042901762,0.0289850364902,0.89417982298,0.0488849135886,0.664863082875,7.3254021128,0.400480574584,2.55811969129,-11.323895129,-6.71143472303,26.6606163299,26.241281896,-3.31106466718,131.653798875,24.8008445312,-0.895346114542,167.375387535,0.0,0.0,0.0,1,1,1,0
390001000,390000000,0.035879869847,0.0105474793981,0.471891377348,-0.0117103001164,0.0160014715016,0.00471161548198,0.999792289658,0.176563837497,-0.0157314655142,0.0983665399836,-0.0835046641292,-0.307202721431,-0.078560216763,1.37224779216,-0.473789100463,2.2620559435,2.08025568063,-4.36820057219,-0.399298625191,0.33,0.15,-1.08191067621e-10,0.0,0.0,0.0,0.0,0.0,0.0,0.33,-0.15,8.79292523218e-12,0.0,0.0,0.0,0.0,0.0,0.0,-0.33,0.15,5.60163493609e-11,0.0,0.0,0.0,0.0,0.0,0.0,-0.29194374207,-0.147919460009,0.0306546741036,0.912009700127,0.0498596750194,0.670641320685,6.93849960466,0.379328570041,2.06447055709,-10.6269272902,-6.29379172051,25.0195199147,26.6380334796,-3.37365732657,132.849009853,25.1740175924,-0.88129185672,169.00633978,0.0,0.0,0.0,1,1,1,0
392501000,392500000,0.0363256679647,0.0105067008085,0.472144492546,-0.011811596982,0.0156124301053,0.00460663131192,0.999797738121,0.180115032052,-0.0168790099079,0.104177909342,-0.0781323941071,-0.317944578903,-0.0795259830349,1.46914873909,-0.444038113778,2.38755342349,2.21808848793,-4.22412678241,-0.373152204951,0.33,0.15,-1.08191067621e-10,0.0,0.0,0.0,0.0,0.0,0.0,0.33,-0.15,8.79292523218e-12,0.0,0.0,0.0,0.0,0.0,0.0,-0.33,0.15,5.60163493609e-11,0.0,0.0,0.0,0.0,0.0,0.0,-0.289642438032,-0.147793647453,0.0323372146579,0.928872321003,0.0507815564388,0.67518543566,6.55159709651,0.358176565498,1.5708214229,-9.93824474127,-5.88177941001,23.3979581461,27.0223567779,-3.43394133244,134.011145303,25.533696931,-0.86888608693,170.586204278,0.0,0.0,0.0,1,1,1,0
395001000,395000000,0.0367806496397,0.0104631476316,0.472412531559,-0.0119060034032,0.0152101718664,0.00450043303026,0.999803302584,0.183911785629,-0.0179506145794,0.110306876501,-0.0724115765772,-0.32831756331,-0.0804251559463,1.5686950103,-0.413037322662,2.51613418347,2.35909542286,-4.07310254476,-0.346019607079,0.33,0.15,-1.08191067621e-10,0.0,0.0,0.0,0.0,0.0,0.0,0.33,-0.15,8.79292523218e-12,0.0,0.0,0.0,0.0,0.0,0.0,-0.33,0.15,5.60163493609e-11,0.0,0.0,0.0,0.0,0.0,0.0,-0.287300186512,-0.147665596294,0.0340295728462,0.944767685609,0.0516505578469,0.6784954278,6.16469458836,0.337024560955,1.07717228871,-9.2594263788,-5.47628919486,21.7996466011,27.3937063673,-3.49180385382,135.138749623,25.8793219421,-0.858163210115,172.112831088,0.0,0.0,0.0,1,1,1,0
397501000,397500000,0.0372454370364,0.0104170136224,0.472696298017,-0.0119930768836,0.0147951663517,0.00439311367152,0.999808966609,0.18796071154,-0.0189431550175,0.11676114966,-0.0663342632945,-0.338304301623,-0.0812552380005,1.67088660579,-0.380786727114,2.64779822342,2.50328678737,-3.91513029419,-0.317875362727,0.33,0.15,-1.08191067621e-10,0.0,0.0,0.0,0.0,0.0,0.0,0.33,-0.15,8.79292523218e-12,0.0,0.0,0.0,0.0,0.0,0.0,-0.33,0.15,5.60163493609e-11,0.0,0.0,0.0,0.0,0.0,0.0,-0.284919405651,-0.147535438731,0.0357286633612,0.959695793945,0.0524666792436,0.680571297104,5.77779208021,0.315872556412,0.583523154517,-8.59205109955,-5.07821247839,20.2283008568,27.7515368241,-3.54713205975,136.230367212,26.2103320211,-0.849157631218,173.584070269,0.0,0.0,0.0,1,1,1,0
400001000,400000000,0.0377206688521,0.0103685003472,0.47299661482,-0.0120723649548,0.0143679048491,0.00428476956643,0.999814713867,0.192268423095,-0.0198535067113,0.123548437018,-0.0598924805645,-0.347887426602,-0.0820136693933,1.77572352557,-0.347286327134,2.78254554335,2.65067263344,-3.7502122206,-0.288695120955,0.33,0.15,-1.08191067621e-10,0.0,0.0,0.0,0.0,0.0,0.0,0.33,-0.15,8.79292523218e-12,0.0,0.0,0.0,0.0,0.0,0.0,-0.33,0.15,5.60163493609e-11,0.0,0.0,0.0,0.0,0.0,0.0,-0.282502513589,-0.147403306964,0.037431400896,0.97365664601,0.053229920629,0.681413043572,5.39088957206,0.294720551869,0.0898740203253,-7.93769780021,-4.6884406639,18.6876364901,28.0953027248,-3.59981311925,137.284542466,26.526166563,-0.841903755185,174.997771879,0.0,0.0,0.0,1,1,1,0
